timestamp,q0,q1,q2,q3,ax,ay,az,gx,gy,gz,mx,my,mz,alt,temp
0.00780155,1.000,-0.000,0.000,0.000,-0.014,-0.033,0.997,-0.243,0.351,0.236,0.319,-0.315,-1.942,7.937,20.877
0.0106364,1.000,-0.001,0.001,0.001,-0.002,-0.035,1.001,-0.246,0.354,0.229,0.319,-0.315,-1.942,7.937,20.877
0.0218587,1.000,-0.002,0.003,0.002,-0.011,-0.031,1.011,-0.248,0.345,0.240,0.319,-0.315,-1.942,7.937,20.877
0.0418436,1.000,-0.004,0.006,0.005,-0.012,-0.039,0.992,-0.246,0.352,0.266,0.316,-0.328,-1.926,7.821,20.881
0.0618364,1.000,-0.006,0.010,0.007,-0.010,-0.036,1.003,-0.248,0.357,0.211,0.316,-0.328,-1.926,7.821,20.881
0.0818473,1.000,-0.008,0.013,0.009,-0.011,-0.035,1.002,-0.248,0.351,0.216,0.316,-0.328,-1.926,7.821,20.881
0.10183,1.000,-0.010,0.017,0.012,-0.012,-0.034,0.988,-0.249,0.354,0.225,0.316,-0.328,-1.926,7.821,20.881
0.121844,1.000,-0.013,0.020,0.014,-0.009,-0.034,1.002,-0.248,0.352,0.255,0.316,-0.328,-1.926,8.181,20.883
0.141843,0.999,-0.015,0.024,0.016,-0.008,-0.035,0.991,-0.245,0.351,0.240,0.319,-0.313,-1.925,8.181,20.883
0.16183,0.999,-0.018,0.027,0.019,-0.000,-0.035,1.001,-0.249,0.357,0.251,0.319,-0.313,-1.925,8.181,20.883
0.181853,0.999,-0.021,0.031,0.021,-0.011,-0.031,1.012,-0.252,0.356,0.238,0.319,-0.313,-1.925,8.181,20.883
0.201823,0.999,-0.024,0.035,0.024,-0.009,-0.035,1.017,-0.245,0.359,0.252,0.319,-0.313,-1.925,8.199,20.888
0.221846,0.999,-0.027,0.039,0.026,-0.002,-0.037,0.999,-0.246,0.357,0.240,0.319,-0.313,-1.925,8.199,20.888
0.241844,0.998,-0.031,0.043,0.029,-0.015,-0.036,0.997,-0.249,0.350,0.246,0.313,-0.314,-1.921,8.199,20.888
0.261828,0.998,-0.034,0.047,0.031,-0.018,-0.031,1.011,-0.249,0.351,0.239,0.313,-0.314,-1.921,8.199,20.888
0.281848,0.997,-0.038,0.051,0.034,-0.016,-0.040,1.003,-0.249,0.349,0.257,0.313,-0.314,-1.921,8.041,20.890
0.301833,0.997,-0.042,0.055,0.036,-0.013,-0.033,1.004,-0.257,0.351,0.263,0.313,-0.314,-1.921,8.041,20.890
0.321851,0.996,-0.045,0.059,0.039,-0.014,-0.043,0.999,-0.249,0.355,0.243,0.313,-0.314,-1.921,8.041,20.890
0.341844,0.996,-0.050,0.064,0.041,-0.003,-0.044,0.995,-0.249,0.357,0.235,0.323,-0.317,-1.941,8.041,20.890
0.361831,0.995,-0.054,0.068,0.043,-0.013,-0.039,1.002,-0.256,0.351,0.234,0.323,-0.317,-1.941,8.116,20.890
0.381847,0.995,-0.059,0.073,0.046,-0.015,-0.035,0.990,-0.252,0.356,0.214,0.323,-0.317,-1.941,8.116,20.890
0.401825,0.994,-0.063,0.077,0.048,-0.014,-0.045,1.016,-0.247,0.354,0.241,0.323,-0.317,-1.941,8.116,20.890
0.42185,0.993,-0.068,0.082,0.050,-0.011,-0.032,0.994,-0.243,0.354,0.221,0.323,-0.317,-1.941,8.116,20.890
0.44184,0.992,-0.074,0.087,0.052,-0.024,-0.030,1.007,-0.243,0.355,0.227,0.330,-0.316,-1.956,8.041,20.900
0.461838,0.991,-0.079,0.092,0.054,-0.014,-0.037,0.999,-0.252,0.351,0.222,0.330,-0.316,-1.956,8.041,20.900
0.481848,0.990,-0.085,0.097,0.057,-0.003,-0.035,1.000,-0.246,0.357,0.241,0.330,-0.316,-1.956,8.041,20.900
0.501822,0.989,-0.091,0.103,0.059,-0.015,-0.035,1.006,-0.247,0.360,0.232,0.330,-0.316,-1.956,8.041,20.900
0.521851,0.987,-0.097,0.108,0.061,-0.013,-0.034,0.994,-0.251,0.357,0.228,0.330,-0.316,-1.956,7.856,20.896
0.541838,0.986,-0.104,0.114,0.063,-0.019,-0.030,1.000,-0.249,0.346,0.235,0.317,-0.316,-1.919,7.856,20.896
0.561833,0.984,-0.111,0.119,0.066,-0.009,-0.025,0.989,-0.249,0.346,0.250,0.317,-0.316,-1.919,7.856,20.896
0.581827,0.983,-0.118,0.125,0.068,-0.006,-0.028,1.005,-0.249,0.359,0.244,0.317,-0.316,-1.919,7.856,20.896
0.601825,0.981,-0.126,0.131,0.070,-0.019,-0.027,1.004,-0.246,0.361,0.272,0.317,-0.316,-1.919,7.856,20.896
0.621843,0.979,-0.133,0.137,0.073,-0.013,-0.036,1.003,-0.242,0.348,0.233,0.317,-0.316,-1.919,7.719,20.902
0.641841,0.977,-0.141,0.144,0.075,-0.009,-0.031,1.006,-0.256,0.355,0.236,0.321,-0.317,-1.947,7.719,20.902
0.661832,0.974,-0.150,0.150,0.077,-0.009,-0.040,1.007,-0.251,0.359,0.238,0.321,-0.317,-1.947,7.719,20.902
0.686555,0.971,-0.161,0.158,0.079,-0.015,-0.032,1.012,-0.251,0.355,0.223,0.321,-0.317,-1.947,7.351,20.906
0.701849,0.969,-0.168,0.163,0.081,-0.009,-0.028,1.004,-0.247,0.356,0.240,0.321,-0.317,-1.947,7.351,20.906
0.721835,0.966,-0.177,0.170,0.083,-0.006,-0.035,0.997,-0.249,0.355,0.251,0.321,-0.317,-1.947,7.351,20.906
0.741847,0.963,-0.187,0.178,0.085,-0.016,-0.035,1.000,-0.252,0.350,0.251,0.318,-0.323,-1.948,7.351,20.906
0.76184,0.959,-0.197,0.185,0.087,-0.011,-0.032,1.008,-0.252,0.359,0.241,0.318,-0.323,-1.948,7.351,20.906
0.781841,0.955,-0.207,0.192,0.089,-0.013,-0.040,0.993,-0.251,0.349,0.251,0.318,-0.323,-1.948,7.748,20.902
0.801833,0.951,-0.218,0.200,0.091,-0.013,-0.036,1.001,-0.241,0.348,0.249,0.318,-0.323,-1.948,7.748,20.902
0.821858,0.946,-0.229,0.208,0.093,-0.013,-0.039,1.011,-0.252,0.351,0.252,0.318,-0.323,-1.948,7.748,20.902
0.841855,0.942,-0.240,0.216,0.094,-0.015,-0.037,1.012,-0.248,0.351,0.256,0.304,-0.311,-1.952,7.748,20.902
0.861836,0.936,-0.252,0.224,0.096,-0.013,-0.032,1.008,-0.242,0.357,0.257,0.304,-0.311,-1.952,7.935,20.906
0.881847,0.931,-0.264,0.233,0.098,-0.008,-0.034,1.002,-0.254,0.349,0.273,0.304,-0.311,-1.952,7.935,20.906
0.901848,0.925,-0.277,0.241,0.099,-0.014,-0.039,0.998,-0.241,0.343,0.213,0.304,-0.311,-1.952,7.935,20.906
0.921853,0.919,-0.290,0.250,0.101,-0.014,-0.031,0.999,-0.254,0.351,0.233,0.317,-0.317,-1.938,7.935,20.906
0.941843,0.912,-0.303,0.258,0.102,-0.006,-0.036,0.997,-0.247,0.357,0.233,0.317,-0.317,-1.938,7.721,20.908
0.961837,0.904,-0.316,0.267,0.103,-0.009,-0.049,0.990,-0.240,0.352,0.234,0.317,-0.317,-1.938,7.721,20.908
0.981852,0.897,-0.330,0.276,0.104,-0.010,-0.030,1.000,-0.243,0.363,0.233,0.317,-0.317,-1.938,7.721,20.908
1.00185,0.888,-0.344,0.285,0.105,-0.009,-0.033,1.002,-0.245,0.351,0.224,0.317,-0.317,-1.938,7.721,20.908
1.02185,0.880,-0.359,0.294,0.106,-0.004,-0.032,1.012,-0.246,0.355,0.244,0.316,-0.314,-1.925,7.435,20.908
1.04186,0.870,-0.374,0.303,0.107,-0.012,-0.035,0.988,-0.251,0.357,0.239,0.316,-0.314,-1.925,7.435,20.908
1.06184,0.860,-0.389,0.312,0.107,-0.013,-0.027,0.985,-0.248,0.351,0.232,0.316,-0.314,-1.925,7.435,20.908
1.08185,0.850,-0.403,0.321,0.108,-0.010,-0.038,1.012,-0.240,0.352,0.276,0.316,-0.314,-1.925,7.435,20.908
1.10186,0.839,-0.419,0.330,0.109,-0.008,-0.030,1.002,-0.238,0.359,0.258,0.316,-0.314,-1.925,7.455,20.910
1.12185,0.827,-0.434,0.339,0.109,-0.015,-0.035,1.008,-0.245,0.344,0.251,0.320,-0.325,-1.928,7.455,20.910
1.14185,0.815,-0.450,0.349,0.109,-0.008,-0.033,1.019,-0.247,0.356,0.230,0.320,-0.325,-1.928,7.455,20.910
1.16184,0.802,-0.465,0.358,0.109,-0.007,-0.034,1.009,-0.252,0.351,0.245,0.320,-0.325,-1.928,7.455,20.910
1.18184,0.789,-0.481,0.367,0.109,-0.019,-0.031,1.003,-0.251,0.349,0.244,0.320,-0.325,-1.928,7.699,20.913
1.20184,0.775,-0.495,0.377,0.111,-0.014,-0.031,1.006,-0.243,0.359,0.549,0.320,-0.325,-1.928,7.699,20.913
1.22184,0.760,-0.511,0.386,0.111,-0.015,-0.031,1.008,-0.256,0.349,0.236,0.330,-0.315,-1.908,7.699,20.913
1.24184,0.745,-0.527,0.394,0.110,-0.015,-0.038,0.997,-0.245,0.345,0.233,0.330,-0.315,-1.908,7.699,20.913
1.26183,0.729,-0.541,0.404,0.111,-0.012,-0.035,0.992,-0.251,0.360,0.548,0.330,-0.315,-1.908,8.206,20.917
1.28185,0.713,-0.557,0.411,0.110,-0.007,-0.032,1.007,-0.245,0.351,0.251,0.330,-0.315,-1.908,8.206,20.917
1.30186,0.697,-0.572,0.419,0.109,-0.013,-0.029,0.993,-0.240,0.355,0.232,0.330,-0.315,-1.908,8.206,20.917
1.32185,0.680,-0.587,0.426,0.108,-0.011,-0.029,1.007,-0.247,0.356,0.228,0.342,-0.314,-1.932,8.206,20.917
1.34184,0.663,-0.602,0.433,0.106,-0.009,-0.031,1.006,-0.247,0.356,0.239,0.342,-0.314,-1.932,7.951,20.917
1.36185,0.645,-0.616,0.439,0.104,-0.011,-0.031,1.009,-0.241,0.349,0.210,0.342,-0.314,-1.932,7.951,20.917
1.38186,0.627,-0.629,0.447,0.104,-0.015,-0.034,1.015,-0.243,0.352,0.524,0.342,-0.314,-1.932,7.951,20.917
1.40185,0.609,-0.643,0.453,0.102,-0.006,-0.030,1.008,-0.245,0.352,0.247,0.342,-0.314,-1.932,7.951,20.917
1.42183,0.591,-0.656,0.458,0.100,-0.002,-0.039,1.003,-0.246,0.354,0.225,0.330,-0.311,-1.923,7.730,20.915
1.44185,0.572,-0.668,0.466,0.100,-0.017,-0.031,1.012,-0.241,0.356,0.547,0.330,-0.311,-1.923,7.730,20.915
1.46184,0.554,-0.680,0.471,0.098,-0.011,-0.030,0.942,-0.246,0.346,0.260,0.330,-0.311,-1.923,7.730,20.915
1.48184,0.535,-0.692,0.475,0.096,-0.003,-0.032,1.008,-0.246,0.352,0.252,0.330,-0.311,-1.923,7.730,20.915
1.50184,0.516,-0.703,0.480,0.093,-0.017,-0.035,1.008,-0.247,0.352,0.263,0.330,-0.311,-1.923,7.329,20.915
1.52184,0.497,-0.713,0.485,0.091,-0.012,-0.041,1.005,-0.249,0.349,0.238,0.321,-0.335,-1.947,7.329,20.915
1.54185,0.479,-0.723,0.490,0.088,-0.021,-0.030,1.017,-0.248,0.351,0.251,0.321,-0.335,-1.947,7.329,20.915
1.56184,0.460,-0.733,0.494,0.085,-0.014,-0.035,1.003,-0.253,0.356,0.244,0.321,-0.335,-1.947,7.329,20.915
1.58183,0.442,-0.742,0.498,0.082,-0.007,-0.033,1.003,-0.248,0.352,0.222,0.321,-0.335,-1.947,7.329,20.915
1.60184,0.424,-0.751,0.501,0.080,-0.009,-0.034,1.014,-0.248,0.351,0.233,0.321,-0.335,-1.947,7.331,20.917
1.62183,0.406,-0.759,0.503,0.077,-0.002,-0.036,1.001,-0.241,0.355,0.246,0.326,-0.325,-1.909,7.331,20.917
1.64184,0.388,-0.767,0.506,0.074,-0.013,-0.040,1.001,-0.243,0.350,0.236,0.326,-0.325,-1.909,7.331,20.917
1.66184,0.371,-0.774,0.508,0.071,-0.006,-0.032,1.014,-0.243,0.349,0.225,0.326,-0.325,-1.909,7.331,20.917
1.68184,0.354,-0.781,0.510,0.068,-0.003,-0.033,1.000,-0.238,0.352,0.263,0.326,-0.325,-1.909,7.534,20.919
1.70183,0.338,-0.788,0.511,0.065,-0.010,-0.028,1.002,-0.247,0.354,0.216,0.326,-0.325,-1.909,7.534,20.919
1.72183,0.321,-0.793,0.513,0.063,-0.013,-0.041,0.993,-0.253,0.359,0.230,0.314,-0.333,-1.925,7.534,20.919
1.74185,0.306,-0.799,0.515,0.060,-0.012,-0.027,0.993,-0.253,0.355,0.235,0.314,-0.333,-1.925,7.534,20.919
1.76184,0.290,-0.804,0.516,0.057,-0.011,-0.041,1.005,-0.246,0.362,0.219,0.314,-0.333,-1.925,8.138,20.919
1.78184,0.275,-0.808,0.518,0.054,-0.007,-0.038,1.006,-0.241,0.355,0.233,0.314,-0.333,-1.925,8.138,20.919
1.80185,0.260,-0.812,0.519,0.051,-0.015,-0.037,1.001,-0.248,0.351,0.227,0.314,-0.333,-1.925,8.138,20.919
1.82183,0.246,-0.816,0.521,0.049,-0.009,-0.037,1.002,-0.245,0.355,0.243,0.296,-0.334,-1.926,8.138,20.919
1.84185,0.233,-0.820,0.522,0.046,-0.010,-0.032,1.003,-0.251,0.351,0.225,0.296,-0.334,-1.926,7.774,20.917
1.86185,0.219,-0.823,0.523,0.043,-0.004,-0.041,0.996,-0.248,0.357,0.249,0.296,-0.334,-1.926,7.774,20.917
1.88184,0.206,-0.826,0.524,0.041,-0.010,-0.032,0.998,-0.245,0.350,0.236,0.296,-0.334,-1.926,7.774,20.917
1.90185,0.194,-0.829,0.523,0.038,-0.016,-0.019,1.012,-0.242,0.350,0.238,0.311,-0.318,-1.921,7.774,20.917
1.92184,0.182,-0.832,0.523,0.035,-0.012,-0.031,1.007,-0.254,0.354,0.241,0.311,-0.318,-1.921,7.652,20.921
1.94185,0.170,-0.834,0.524,0.033,-0.012,-0.041,0.999,-0.247,0.351,0.223,0.311,-0.318,-1.921,7.652,20.921
1.96184,0.159,-0.836,0.524,0.031,-0.022,-0.036,1.012,-0.247,0.351,0.251,0.311,-0.318,-1.921,7.652,20.921
1.98184,0.148,-0.838,0.524,0.028,-0.009,-0.036,1.001,-0.248,0.351,0.233,0.311,-0.318,-1.921,7.652,20.921
2.00184,0.138,-0.840,0.524,0.026,-0.011,-0.029,1.008,-0.246,0.355,0.240,0.300,-0.334,-1.926,8.039,20.921
2.02183,0.128,-0.841,0.524,0.024,-0.013,-0.032,1.005,-0.248,0.350,0.243,0.300,-0.334,-1.926,8.039,20.921
2.04184,0.118,-0.843,0.525,0.021,-0.013,-0.038,1.013,-0.253,0.359,0.224,0.300,-0.334,-1.926,8.039,20.921
2.06185,0.109,-0.844,0.525,0.019,-0.014,-0.041,1.009,-0.248,0.354,0.254,0.300,-0.334,-1.926,8.039,20.921
2.08184,0.100,-0.844,0.526,0.017,-0.022,-0.032,1.009,-0.248,0.356,0.249,0.300,-0.334,-1.926,8.043,20.923
2.10184,0.091,-0.846,0.525,0.015,-0.005,-0.034,0.996,-0.245,0.355,0.240,0.308,-0.323,-1.904,8.043,20.923
2.12183,0.083,-0.847,0.525,0.013,-0.012,-0.033,1.003,-0.249,0.348,0.255,0.308,-0.323,-1.904,8.043,20.923
2.14184,0.075,-0.848,0.524,0.011,-0.010,-0.020,0.985,-0.248,0.359,0.240,0.308,-0.323,-1.904,8.043,20.923
2.16183,0.067,-0.850,0.523,0.009,-0.007,-0.036,1.006,-0.253,0.356,0.210,0.308,-0.323,-1.904,7.231,20.923
2.18185,0.060,-0.850,0.523,0.008,-0.011,-0.040,0.997,-0.249,0.350,0.224,0.308,-0.323,-1.904,7.231,20.923
2.20184,0.053,-0.852,0.521,0.006,-0.010,-0.025,0.999,-0.254,0.350,0.235,0.319,-0.323,-1.925,7.231,20.923
2.22183,0.046,-0.852,0.521,0.004,-0.019,-0.035,1.006,-0.248,0.356,0.244,0.319,-0.323,-1.925,7.231,20.923
2.24185,0.040,-0.853,0.520,0.002,-0.009,-0.037,1.002,-0.241,0.354,0.261,0.319,-0.323,-1.925,8.055,20.919
2.26182,0.033,-0.853,0.520,0.001,-0.014,-0.043,1.010,-0.246,0.354,0.265,0.319,-0.323,-1.925,8.055,20.919
2.28184,0.027,-0.854,0.520,-0.001,-0.019,-0.029,0.997,-0.247,0.356,0.254,0.319,-0.323,-1.925,8.055,20.919
2.30184,0.022,-0.855,0.519,-0.002,-0.004,-0.041,1.010,-0.253,0.359,0.240,0.310,-0.317,-1.940,8.055,20.919
2.32183,0.016,-0.855,0.518,-0.004,-0.010,-0.034,0.995,-0.245,0.354,0.249,0.310,-0.317,-1.940,8.624,20.925
2.34184,0.011,-0.855,0.518,-0.005,-0.010,-0.040,1.022,-0.246,0.350,0.254,0.310,-0.317,-1.940,8.624,20.925
2.36184,0.006,-0.856,0.517,-0.007,-0.016,-0.030,0.994,-0.249,0.351,0.229,0.310,-0.317,-1.940,8.624,20.925
2.38184,0.001,-0.856,0.517,-0.008,-0.013,-0.044,1.004,-0.256,0.362,0.246,0.310,-0.317,-1.940,8.624,20.925
2.40185,-0.004,-0.856,0.517,-0.009,-0.012,-0.032,1.005,-0.251,0.355,0.235,0.300,-0.333,-1.924,8.494,20.927
2.42183,-0.008,-0.856,0.516,-0.011,-0.006,-0.024,1.004,-0.249,0.349,0.258,0.300,-0.333,-1.924,8.494,20.927
2.44184,-0.013,-0.856,0.516,-0.012,-0.006,-0.044,0.983,-0.251,0.348,0.252,0.300,-0.333,-1.924,8.494,20.927
2.46183,-0.017,-0.856,0.517,-0.013,-0.020,-0.036,1.004,-0.247,0.346,0.228,0.300,-0.333,-1.924,8.494,20.927
2.48183,-0.021,-0.856,0.517,-0.014,-0.014,-0.033,1.001,-0.248,0.349,0.272,0.300,-0.333,-1.924,8.315,20.919
2.50185,-0.025,-0.855,0.517,-0.015,-0.011,-0.033,1.006,-0.248,0.348,0.277,0.303,-0.344,-1.911,8.315,20.919
2.52183,-0.028,-0.855,0.518,-0.016,-0.021,-0.032,1.016,-0.258,0.351,0.268,0.303,-0.344,-1.911,8.315,20.919
2.54185,-0.032,-0.855,0.517,-0.017,-0.006,-0.026,1.005,-0.254,0.350,0.199,0.303,-0.344,-1.911,8.315,20.919
2.56183,-0.035,-0.855,0.517,-0.018,-0.018,-0.036,1.005,-0.248,0.356,0.230,0.303,-0.344,-1.911,8.258,20.927
2.58184,-0.038,-0.855,0.517,-0.019,-0.010,-0.029,1.007,-0.253,0.354,0.210,0.303,-0.344,-1.911,8.258,20.927
2.60184,-0.041,-0.855,0.516,-0.020,-0.010,-0.034,1.005,-0.248,0.361,0.247,0.318,-0.341,-1.895,8.258,20.927
2.62184,-0.044,-0.856,0.515,-0.021,-0.006,-0.035,1.000,-0.248,0.350,0.236,0.318,-0.341,-1.895,8.258,20.927
2.64184,-0.047,-0.855,0.516,-0.022,-0.019,-0.040,0.991,-0.256,0.349,0.247,0.318,-0.341,-1.895,8.258,20.927
2.66184,-0.050,-0.856,0.515,-0.023,-0.013,-0.023,1.016,-0.243,0.354,0.239,0.318,-0.341,-1.895,8.480,20.929
2.68182,-0.053,-0.856,0.514,-0.024,-0.015,-0.036,1.002,-0.249,0.362,0.240,0.318,-0.341,-1.895,8.480,20.929
2.70185,-0.055,-0.856,0.513,-0.025,-0.010,-0.034,0.992,-0.249,0.351,0.254,0.334,-0.328,-1.940,8.480,20.929
2.72183,-0.058,-0.858,0.510,-0.025,-0.012,-0.032,1.011,-0.258,0.355,-0.049,0.334,-0.328,-1.940,8.480,20.929
2.74185,-0.060,-0.859,0.508,-0.026,-0.009,-0.027,1.007,-0.248,0.345,0.235,0.334,-0.328,-1.940,7.860,20.923
2.76185,-0.062,-0.859,0.508,-0.027,-0.014,-0.040,1.012,-0.245,0.359,0.236,0.334,-0.328,-1.940,7.860,20.923
2.78183,-0.064,-0.860,0.506,-0.028,-0.004,-0.027,1.002,-0.251,0.351,0.216,0.334,-0.328,-1.940,7.860,20.923
2.80185,-0.066,-0.860,0.506,-0.028,-0.010,-0.035,1.011,-0.247,0.352,0.224,0.308,-0.335,-1.922,7.860,20.923
2.82183,-0.068,-0.860,0.506,-0.029,-0.005,-0.038,1.005,-0.247,0.346,0.254,0.308,-0.335,-1.922,7.481,20.929
2.84185,-0.070,-0.861,0.503,-0.029,-0.009,-0.036,1.006,-0.247,0.352,-0.060,0.308,-0.335,-1.922,7.481,20.929
2.86185,-0.072,-0.861,0.503,-0.030,-0.012,-0.035,1.027,-0.251,0.356,0.250,0.308,-0.335,-1.922,7.481,20.929
2.88183,-0.073,-0.861,0.503,-0.031,-0.011,-0.028,1.011,-0.254,0.357,0.230,0.308,-0.335,-1.922,7.481,20.929
2.90184,-0.075,-0.860,0.504,-0.031,-0.014,-0.038,1.007,-0.247,0.352,0.229,0.292,-0.330,-1.934,7.620,20.925
2.92181,-0.077,-0.859,0.504,-0.032,-0.011,-0.038,1.004,-0.253,0.359,0.260,0.292,-0.330,-1.934,7.620,20.925
2.94183,-0.078,-0.859,0.506,-0.033,-0.021,-0.040,1.010,-0.249,0.348,0.247,0.292,-0.330,-1.934,7.620,20.925
2.96184,-0.080,-0.857,0.508,-0.033,-0.011,-0.024,1.011,-0.251,0.356,0.542,0.292,-0.330,-1.934,7.620,20.925
2.98184,-0.081,-0.857,0.508,-0.034,-0.011,-0.039,1.001,-0.246,0.348,0.271,0.306,-0.311,-1.919,7.890,20.929
3.00184,-0.082,-0.857,0.508,-0.034,-0.005,-0.043,1.000,-0.253,0.357,0.273,0.306,-0.311,-1.919,7.890,20.929
3.02182,-0.084,-0.857,0.508,-0.035,-0.016,-0.030,1.001,-0.245,0.352,0.246,0.306,-0.311,-1.919,7.890,20.929
3.04185,-0.085,-0.857,0.507,-0.035,-0.008,-0.035,1.010,-0.246,0.352,0.241,0.306,-0.311,-1.919,7.890,20.929
3.06185,-0.086,-0.858,0.506,-0.036,0.002,-0.030,1.007,-0.247,0.348,0.263,0.306,-0.311,-1.919,8.020,20.929
3.08184,-0.087,-0.858,0.505,-0.036,-0.017,-0.036,1.014,-0.252,0.356,0.265,0.323,-0.315,-1.907,8.020,20.929
3.10183,-0.088,-0.858,0.504,-0.037,-0.009,-0.031,1.018,-0.247,0.348,0.251,0.323,-0.315,-1.907,8.020,20.929
3.12183,-0.089,-0.859,0.504,-0.037,-0.007,-0.039,1.016,-0.248,0.351,0.243,0.323,-0.315,-1.907,8.020,20.929
3.14184,-0.090,-0.859,0.503,-0.037,-0.015,-0.036,1.017,-0.243,0.350,0.251,0.323,-0.315,-1.907,8.433,20.927
3.16184,-0.091,-0.859,0.503,-0.038,-0.013,-0.036,1.004,-0.252,0.352,0.241,0.323,-0.315,-1.907,8.433,20.927
3.18184,-0.092,-0.859,0.502,-0.038,-0.007,-0.035,1.005,-0.256,0.355,0.254,0.313,-0.314,-1.921,8.433,20.927
3.20184,-0.093,-0.859,0.502,-0.039,-0.014,-0.038,0.999,-0.256,0.351,0.254,0.313,-0.314,-1.921,8.433,20.927
3.22182,-0.094,-0.859,0.501,-0.039,-0.010,-0.036,1.008,-0.240,0.351,0.225,0.313,-0.314,-1.921,7.642,20.929
3.24184,-0.095,-0.860,0.501,-0.039,-0.006,-0.030,1.009,-0.258,0.351,0.246,0.313,-0.314,-1.921,7.642,20.929
3.26183,-0.095,-0.860,0.500,-0.039,-0.000,-0.037,1.004,-0.251,0.354,0.273,0.313,-0.314,-1.921,7.642,20.929
3.28183,-0.096,-0.860,0.500,-0.040,-0.007,-0.036,1.006,-0.251,0.352,0.244,0.304,-0.320,-1.917,7.642,20.929
3.30184,-0.097,-0.860,0.500,-0.040,-0.008,-0.036,0.996,-0.248,0.350,0.252,0.304,-0.320,-1.917,8.053,20.931
3.32182,-0.098,-0.860,0.500,-0.040,-0.010,-0.035,1.010,-0.254,0.352,0.214,0.304,-0.320,-1.917,8.053,20.931
3.34185,-0.098,-0.860,0.500,-0.041,-0.011,-0.032,1.002,-0.236,0.351,0.252,0.304,-0.320,-1.917,8.053,20.931
3.36184,-0.099,-0.860,0.500,-0.041,-0.007,-0.035,1.009,-0.253,0.350,0.247,0.304,-0.320,-1.917,8.053,20.931
3.38184,-0.099,-0.859,0.500,-0.041,-0.017,-0.038,1.009,-0.253,0.350,0.233,0.301,-0.328,-1.915,7.488,20.931
3.40184,-0.100,-0.859,0.501,-0.041,-0.012,-0.037,1.001,-0.252,0.354,0.251,0.301,-0.328,-1.915,7.488,20.931
3.42184,-0.101,-0.859,0.501,-0.042,-0.007,-0.035,0.990,-0.249,0.350,0.238,0.301,-0.328,-1.915,7.488,20.931
3.44185,-0.101,-0.859,0.500,-0.042,0.002,-0.028,1.005,-0.254,0.351,0.240,0.301,-0.328,-1.915,7.488,20.931
3.46185,-0.101,-0.859,0.500,-0.042,-0.009,-0.030,0.999,-0.253,0.351,0.238,0.301,-0.328,-1.915,8.637,20.931
3.48183,-0.102,-0.859,0.500,-0.042,-0.007,-0.042,1.012,-0.249,0.355,0.232,0.317,-0.334,-1.905,8.637,20.931
3.50184,-0.103,-0.859,0.500,-0.042,-0.019,-0.031,1.009,-0.249,0.350,0.221,0.317,-0.334,-1.905,8.637,20.931
3.52187,-0.103,-0.859,0.500,-0.043,-0.012,-0.035,1.006,-0.248,0.360,0.228,0.317,-0.334,-1.905,8.637,20.931
3.54185,-0.104,-0.859,0.500,-0.043,-0.008,-0.036,1.003,-0.245,0.356,0.224,0.317,-0.334,-1.905,8.334,20.931
3.56184,-0.104,-0.859,0.500,-0.043,-0.013,-0.036,0.996,-0.248,0.352,0.224,0.317,-0.334,-1.905,8.334,20.931
3.58185,-0.104,-0.859,0.499,-0.043,-0.007,-0.038,0.994,-0.251,0.351,0.239,0.324,-0.331,-1.908,8.334,20.931
3.60184,-0.105,-0.859,0.499,-0.044,-0.011,-0.023,1.008,-0.245,0.355,0.254,0.324,-0.331,-1.908,8.334,20.931
3.62184,-0.105,-0.860,0.498,-0.044,-0.009,-0.036,1.022,-0.254,0.354,0.243,0.324,-0.331,-1.908,8.334,20.933
3.64186,-0.105,-0.860,0.498,-0.044,-0.011,-0.033,1.008,-0.245,0.352,0.238,0.324,-0.331,-1.908,8.472,20.933
3.66184,-0.106,-0.860,0.498,-0.044,-0.009,-0.037,1.004,-0.246,0.350,0.246,0.324,-0.331,-1.908,8.472,20.933
3.68184,-0.106,-0.860,0.497,-0.044,-0.006,-0.035,1.008,-0.248,0.360,0.238,0.323,-0.310,-1.934,8.472,20.933
3.70184,-0.106,-0.861,0.496,-0.044,-0.006,-0.037,0.993,-0.248,0.356,0.258,0.323,-0.310,-1.934,8.472,20.933
3.72183,-0.107,-0.861,0.496,-0.045,-0.010,-0.039,1.001,-0.247,0.354,0.255,0.323,-0.310,-1.934,8.610,20.938
3.74185,-0.107,-0.861,0.496,-0.045,-0.013,-0.040,1.003,-0.245,0.356,0.228,0.323,-0.310,-1.934,8.610,20.938
3.76184,-0.107,-0.861,0.495,-0.045,-0.014,-0.033,0.994,-0.253,0.362,0.227,0.323,-0.310,-1.934,8.610,20.938
3.78183,-0.108,-0.861,0.495,-0.045,-0.015,-0.039,0.999,-0.254,0.351,0.258,0.317,-0.303,-1.945,8.610,20.938
3.80184,-0.108,-0.862,0.494,-0.046,-0.011,-0.025,1.012,-0.252,0.346,0.234,0.317,-0.303,-1.945,8.751,20.938
3.82185,-0.108,-0.862,0.493,-0.046,-0.009,-0.040,1.005,-0.253,0.350,0.214,0.317,-0.303,-1.945,8.751,20.938
3.84185,-0.108,-0.862,0.493,-0.046,-0.010,-0.030,1.005,-0.243,0.356,0.219,0.317,-0.303,-1.945,8.751,20.938
3.86185,-0.108,-0.863,0.492,-0.046,-0.015,-0.027,0.998,-0.252,0.355,0.235,0.317,-0.303,-1.945,8.751,20.938
3.88184,-0.109,-0.863,0.491,-0.046,-0.007,-0.033,1.017,-0.238,0.360,0.224,0.324,-0.317,-1.918,8.157,20.935
3.90184,-0.109,-0.863,0.491,-0.046,-0.010,-0.039,1.023,-0.247,0.359,0.232,0.324,-0.317,-1.918,8.157,20.935
3.92184,-0.109,-0.863,0.491,-0.047,-0.007,-0.043,1.007,-0.242,0.356,0.232,0.324,-0.317,-1.918,8.157,20.935
3.94183,-0.109,-0.863,0.491,-0.047,-0.014,-0.044,0.998,-0.249,0.351,0.239,0.324,-0.317,-1.918,8.157,20.935
3.96185,-0.110,-0.863,0.490,-0.047,-0.010,-0.026,1.008,-0.243,0.366,0.229,0.314,-0.299,-1.937,8.814,20.938
3.98185,-0.110,-0.863,0.490,-0.047,-0.018,-0.035,1.007,-0.242,0.350,0.217,0.314,-0.299,-1.937,8.814,20.938
4.00184,-0.110,-0.864,0.490,-0.047,-0.010,-0.033,1.022,-0.252,0.360,0.254,0.314,-0.299,-1.937,8.814,20.938
4.02185,-0.110,-0.864,0.490,-0.048,-0.013,-0.036,1.001,-0.241,0.356,0.258,0.314,-0.299,-1.937,8.814,20.938
4.04184,-0.110,-0.864,0.490,-0.048,-0.017,-0.032,1.001,-0.252,0.349,0.229,0.314,-0.299,-1.937,8.008,20.938
4.06184,-0.110,-0.864,0.489,-0.048,-0.006,-0.034,1.012,-0.253,0.360,0.239,0.314,-0.290,-1.928,8.008,20.938
4.08184,-0.110,-0.865,0.488,-0.048,-0.006,-0.032,1.003,-0.249,0.355,0.217,0.314,-0.290,-1.928,8.008,20.938
4.10184,-0.110,-0.865,0.487,-0.048,-0.009,-0.031,0.999,-0.249,0.352,0.228,0.314,-0.290,-1.928,8.008,20.938
4.12185,-0.111,-0.865,0.487,-0.048,-0.005,-0.044,0.991,-0.247,0.352,0.251,0.314,-0.290,-1.928,8.504,20.944
4.14182,-0.111,-0.866,0.486,-0.048,-0.009,-0.029,1.013,-0.246,0.352,0.269,0.314,-0.290,-1.928,8.504,20.944
4.16183,-0.111,-0.866,0.486,-0.048,-0.014,-0.032,1.009,-0.251,0.352,0.243,0.303,-0.287,-1.930,8.504,20.944
4.18194,-0.111,-0.866,0.486,-0.049,-0.013,-0.034,0.996,-0.246,0.361,0.227,0.303,-0.287,-1.930,8.504,20.944
4.20185,-0.111,-0.866,0.486,-0.049,-0.010,-0.033,0.998,-0.240,0.352,0.233,0.303,-0.287,-1.930,8.321,20.940
4.22185,-0.111,-0.866,0.485,-0.049,-0.010,-0.039,1.006,-0.249,0.354,0.222,0.303,-0.287,-1.930,8.321,20.940
4.24185,-0.111,-0.866,0.485,-0.049,-0.018,-0.025,0.996,-0.254,0.348,0.245,0.303,-0.287,-1.930,8.321,20.940
4.26184,-0.111,-0.866,0.485,-0.049,-0.007,-0.032,1.005,-0.249,0.355,0.241,0.300,-0.280,-1.948,8.321,20.940
4.28184,-0.111,-0.866,0.485,-0.049,-0.016,-0.038,1.016,-0.249,0.354,0.249,0.300,-0.280,-1.948,7.730,20.946
4.30184,-0.111,-0.866,0.484,-0.049,-0.004,-0.028,1.013,-0.249,0.350,0.236,0.300,-0.280,-1.948,7.730,20.946
4.32186,-0.111,-0.867,0.484,-0.049,-0.009,-0.027,1.016,-0.246,0.351,0.224,0.300,-0.280,-1.948,7.730,20.946
4.34185,-0.111,-0.867,0.484,-0.049,-0.015,-0.031,1.013,-0.248,0.351,0.245,0.300,-0.280,-1.948,7.730,20.946
4.36183,-0.111,-0.866,0.484,-0.050,-0.020,-0.031,1.010,-0.253,0.350,0.236,0.302,-0.301,-1.920,9.233,20.946
4.38185,-0.111,-0.866,0.484,-0.050,-0.010,-0.032,1.015,-0.240,0.350,0.228,0.302,-0.301,-1.920,9.233,20.946
4.40185,-0.111,-0.866,0.485,-0.050,-0.010,-0.039,0.999,-0.248,0.352,0.240,0.302,-0.301,-1.920,9.233,20.946
4.42185,-0.111,-0.867,0.482,-0.049,-0.010,-0.036,1.006,-0.251,0.361,-0.052,0.302,-0.301,-1.920,9.233,20.946
4.44185,-0.111,-0.868,0.482,-0.050,-0.007,-0.026,1.010,-0.249,0.354,0.244,0.302,-0.301,-1.920,8.197,20.944
4.46184,-0.111,-0.868,0.482,-0.050,-0.011,-0.029,0.996,-0.256,0.355,0.261,0.327,-0.311,-1.922,8.197,20.944
4.48184,-0.112,-0.869,0.479,-0.049,-0.008,-0.034,1.009,-0.260,0.357,-0.049,0.327,-0.311,-1.922,8.197,20.944
4.50185,-0.112,-0.869,0.479,-0.050,-0.015,-0.032,1.006,-0.249,0.352,0.235,0.327,-0.311,-1.922,8.197,20.944
4.52185,-0.112,-0.869,0.479,-0.050,-0.008,-0.031,1.003,-0.247,0.354,0.260,0.327,-0.311,-1.922,7.866,20.944
4.54185,-0.112,-0.869,0.479,-0.050,-0.007,-0.026,1.012,-0.246,0.360,0.258,0.327,-0.311,-1.922,7.866,20.944
4.56184,-0.112,-0.870,0.479,-0.050,-0.010,-0.033,1.009,-0.251,0.355,0.252,0.313,-0.285,-1.909,7.866,20.944
4.58184,-0.112,-0.870,0.478,-0.050,0.001,-0.032,1.015,-0.251,0.352,0.272,0.313,-0.285,-1.909,7.866,20.944
4.60184,-0.112,-0.870,0.478,-0.050,-0.012,-0.034,1.008,-0.251,0.352,0.274,0.313,-0.285,-1.909,7.732,20.946
4.62185,-0.112,-0.870,0.478,-0.050,-0.008,-0.034,1.008,-0.249,0.351,0.240,0.313,-0.285,-1.909,7.732,20.946
4.64184,-0.112,-0.870,0.477,-0.050,-0.009,-0.036,1.002,-0.249,0.352,0.230,0.313,-0.285,-1.909,7.732,20.946
4.66184,-0.112,-0.870,0.478,-0.050,-0.010,-0.039,1.013,-0.249,0.356,0.247,0.309,-0.290,-1.934,7.732,20.946
4.68184,-0.112,-0.870,0.478,-0.050,-0.013,-0.039,1.003,-0.251,0.349,0.216,0.309,-0.290,-1.934,7.732,20.946
4.70184,-0.112,-0.870,0.478,-0.050,-0.006,-0.034,1.012,-0.257,0.352,0.246,0.309,-0.290,-1.934,7.770,20.948
4.72183,-0.112,-0.870,0.478,-0.050,-0.012,-0.032,0.996,-0.245,0.354,0.228,0.309,-0.290,-1.934,7.770,20.948
4.74184,-0.112,-0.870,0.478,-0.050,-0.010,-0.030,1.004,-0.245,0.349,0.251,0.309,-0.290,-1.934,7.770,20.948
4.76184,-0.112,-0.870,0.478,-0.050,-0.012,-0.032,1.015,-0.248,0.350,0.251,0.315,-0.311,-1.930,7.770,20.948
4.78183,-0.112,-0.870,0.478,-0.051,-0.006,-0.030,1.008,-0.245,0.351,0.249,0.315,-0.311,-1.930,7.583,20.950
4.80184,-0.112,-0.870,0.478,-0.051,-0.010,-0.028,1.004,-0.251,0.350,0.228,0.315,-0.311,-1.930,7.583,20.950
4.82184,-0.112,-0.870,0.478,-0.051,-0.009,-0.030,1.011,-0.256,0.362,0.217,0.315,-0.311,-1.930,7.583,20.950
4.84185,-0.112,-0.870,0.478,-0.051,-0.011,-0.030,1.003,-0.245,0.354,0.212,0.315,-0.311,-1.930,7.583,20.950
4.86184,-0.112,-0.869,0.479,-0.051,-0.014,-0.041,1.003,-0.243,0.351,0.233,0.299,-0.285,-1.931,8.130,20.948
4.88184,-0.112,-0.869,0.479,-0.051,-0.013,-0.036,1.008,-0.252,0.359,0.228,0.299,-0.285,-1.931,8.130,20.948
4.90184,-0.112,-0.869,0.479,-0.051,-0.014,-0.027,1.007,-0.251,0.363,0.230,0.299,-0.285,-1.931,8.130,20.948
4.92184,-0.112,-0.869,0.479,-0.051,-0.012,-0.036,1.005,-0.252,0.349,0.260,0.299,-0.285,-1.931,8.130,20.948
4.94185,-0.112,-0.869,0.480,-0.051,-0.014,-0.034,1.015,-0.245,0.351,0.247,0.299,-0.285,-1.931,8.083,20.952
4.96185,-0.112,-0.869,0.480,-0.051,-0.004,-0.035,0.997,-0.253,0.348,0.263,0.327,-0.318,-1.925,8.083,20.952
4.98184,-0.112,-0.868,0.480,-0.051,-0.015,-0.036,0.998,-0.241,0.352,0.239,0.327,-0.318,-1.925,8.083,20.952
5.00184,-0.112,-0.868,0.480,-0.051,-0.008,-0.037,1.001,-0.247,0.350,0.247,0.327,-0.318,-1.925,8.083,20.952
5.02184,-0.112,-0.868,0.481,-0.051,-0.012,-0.043,1.004,-0.246,0.351,0.268,0.327,-0.318,-1.925,8.348,20.950
5.04183,-0.112,-0.868,0.481,-0.051,-0.023,-0.034,0.996,-0.245,0.349,0.202,0.331,-0.308,-1.915,8.348,20.950
5.06185,-0.112,-0.868,0.481,-0.051,-0.007,-0.037,1.009,-0.251,0.354,0.217,0.331,-0.308,-1.915,8.348,20.950
5.08184,-0.112,-0.868,0.480,-0.051,-0.014,-0.032,1.002,-0.251,0.345,0.223,0.331,-0.308,-1.915,8.348,20.950
5.10184,-0.112,-0.869,0.480,-0.051,-0.010,-0.036,1.011,-0.248,0.359,0.218,0.331,-0.308,-1.915,7.378,20.950
5.12183,-0.112,-0.869,0.479,-0.051,-0.016,-0.023,1.003,-0.249,0.355,0.234,0.331,-0.308,-1.915,7.378,20.950
5.14182,-0.112,-0.869,0.480,-0.051,-0.011,-0.039,1.013,-0.248,0.356,0.228,0.310,-0.297,-1.914,7.378,20.950
5.16184,-0.112,-0.869,0.480,-0.052,-0.013,-0.032,1.002,-0.246,0.352,0.258,0.310,-0.297,-1.914,7.378,20.950
5.18183,-0.112,-0.868,0.481,-0.052,-0.013,-0.039,0.999,-0.242,0.352,0.279,0.310,-0.297,-1.914,7.764,20.952
5.20183,-0.112,-0.868,0.481,-0.052,-0.009,-0.035,0.990,-0.254,0.360,0.272,0.310,-0.297,-1.914,7.764,20.952
5.22184,-0.112,-0.868,0.481,-0.052,-0.011,-0.035,0.985,-0.248,0.351,0.241,0.310,-0.297,-1.914,7.764,20.952
5.24183,-0.112,-0.868,0.480,-0.052,-0.011,-0.029,1.012,-0.246,0.354,0.241,0.344,-0.306,-1.942,7.764,20.952
5.26185,-0.112,-0.869,0.480,-0.052,-0.010,-0.032,1.001,-0.248,0.359,0.258,0.344,-0.306,-1.942,8.395,20.950
5.28185,-0.112,-0.869,0.480,-0.052,-0.018,-0.033,1.003,-0.252,0.355,0.243,0.344,-0.306,-1.942,8.395,20.950
5.30184,-0.112,-0.869,0.479,-0.052,-0.008,-0.038,1.005,-0.245,0.352,0.241,0.344,-0.306,-1.942,8.395,20.950
5.32184,-0.112,-0.870,0.478,-0.052,-0.007,-0.027,1.009,-0.249,0.351,0.243,0.344,-0.306,-1.942,8.395,20.950
5.34184,-0.112,-0.870,0.478,-0.052,-0.012,-0.033,1.014,-0.247,0.356,0.258,0.336,-0.314,-1.934,7.888,20.956
5.36184,-0.112,-0.870,0.478,-0.052,-0.011,-0.029,0.990,-0.249,0.351,0.257,0.336,-0.314,-1.934,7.888,20.956
5.38184,-0.112,-0.870,0.478,-0.052,-0.015,-0.028,1.010,-0.249,0.350,0.268,0.336,-0.314,-1.934,7.888,20.956
5.40183,-0.112,-0.870,0.478,-0.052,-0.010,-0.035,1.000,-0.253,0.357,0.227,0.336,-0.314,-1.934,7.888,20.956
5.42184,-0.112,-0.870,0.477,-0.052,-0.013,-0.034,1.018,-0.240,0.351,0.225,0.336,-0.314,-1.934,7.862,20.952
5.44183,-0.112,-0.869,0.479,-0.052,-0.013,-0.041,0.998,-0.249,0.350,0.265,0.313,-0.315,-1.943,7.862,20.952
5.46185,-0.112,-0.869,0.479,-0.052,-0.014,-0.034,1.008,-0.248,0.348,0.225,0.313,-0.315,-1.943,7.862,20.952
5.48184,-0.112,-0.869,0.479,-0.052,-0.008,-0.035,0.993,-0.252,0.357,0.216,0.313,-0.315,-1.943,7.862,20.952
5.50184,-0.112,-0.868,0.480,-0.052,-0.015,-0.041,1.014,-0.258,0.355,0.228,0.313,-0.315,-1.943,8.071,20.956
5.52184,-0.113,-0.868,0.481,-0.052,-0.011,-0.036,1.013,-0.252,0.354,0.244,0.313,-0.315,-1.943,8.071,20.956
5.54184,-0.113,-0.868,0.481,-0.052,-0.011,-0.037,1.000,-0.249,0.352,0.255,0.321,-0.321,-1.942,8.071,20.956
5.56184,-0.113,-0.867,0.483,-0.052,-0.018,-0.037,1.015,-0.258,0.360,0.276,0.321,-0.321,-1.942,8.071,20.956
5.58184,-0.113,-0.867,0.483,-0.052,-0.015,-0.029,1.025,-0.253,0.352,0.244,0.321,-0.321,-1.942,7.864,20.958
5.60184,-0.113,-0.867,0.483,-0.052,-0.009,-0.030,0.996,-0.251,0.348,0.241,0.321,-0.321,-1.942,7.864,20.958
5.62183,-0.112,-0.867,0.483,-0.052,-0.002,-0.027,1.008,-0.242,0.346,0.254,0.321,-0.321,-1.942,7.864,20.958
5.64181,-0.112,-0.868,0.482,-0.052,-0.009,-0.029,1.005,-0.243,0.352,0.222,0.323,-0.294,-1.946,7.864,20.958
5.66185,-0.112,-0.868,0.481,-0.052,-0.008,-0.036,1.002,-0.243,0.348,0.224,0.323,-0.294,-1.946,7.864,20.960
5.68188,-0.112,-0.868,0.481,-0.052,-0.015,-0.039,1.010,-0.245,0.354,0.246,0.323,-0.294,-1.946,8.326,20.960
5.70184,-0.112,-0.868,0.481,-0.052,-0.012,-0.033,1.012,-0.245,0.357,0.228,0.323,-0.294,-1.946,8.326,20.960
5.72185,-0.112,-0.868,0.480,-0.052,-0.010,-0.035,0.992,-0.248,0.352,0.229,0.323,-0.294,-1.946,8.326,20.960
5.74183,-0.112,-0.868,0.481,-0.052,-0.019,-0.040,0.993,-0.249,0.346,0.247,0.328,-0.317,-1.941,8.326,20.960
5.76185,-0.112,-0.868,0.481,-0.052,-0.008,-0.033,1.006,-0.249,0.344,0.213,0.328,-0.317,-1.941,8.665,20.958
5.78184,-0.112,-0.868,0.481,-0.052,-0.011,-0.034,1.007,-0.245,0.354,0.239,0.328,-0.317,-1.941,8.665,20.958
5.80183,-0.112,-0.868,0.481,-0.052,-0.016,-0.029,1.019,-0.246,0.348,0.240,0.328,-0.317,-1.941,8.665,20.958
5.82184,-0.112,-0.868,0.481,-0.052,-0.009,-0.033,1.008,-0.254,0.351,0.244,0.328,-0.317,-1.941,8.665,20.958
5.84183,-0.112,-0.868,0.482,-0.052,-0.012,-0.038,0.945,-0.246,0.355,0.236,0.307,-0.303,-1.966,8.533,20.962
5.86185,-0.113,-0.867,0.483,-0.052,-0.022,-0.040,1.016,-0.248,0.355,0.256,0.307,-0.303,-1.966,8.533,20.962
5.88184,-0.113,-0.867,0.482,-0.052,-0.001,-0.036,1.007,-0.247,0.355,0.227,0.307,-0.303,-1.966,8.533,20.962
5.90184,-0.112,-0.867,0.483,-0.052,-0.010,-0.031,1.008,-0.242,0.352,0.250,0.307,-0.303,-1.966,8.533,20.962
5.92184,-0.112,-0.867,0.483,-0.052,-0.012,-0.034,1.001,-0.252,0.340,0.228,0.307,-0.303,-1.966,8.206,20.962
5.94183,-0.112,-0.867,0.483,-0.052,-0.010,-0.039,1.008,-0.246,0.355,0.235,0.323,-0.312,-1.949,8.206,20.962
5.96184,-0.112,-0.867,0.483,-0.052,-0.013,-0.034,1.005,-0.252,0.354,0.234,0.323,-0.312,-1.949,8.206,20.962
5.98183,-0.112,-0.867,0.483,-0.052,-0.009,-0.030,1.005,-0.251,0.360,0.236,0.323,-0.312,-1.949,8.206,20.962
6.00184,-0.112,-0.866,0.485,-0.052,-0.005,-0.037,1.006,-0.248,0.357,0.549,0.323,-0.312,-1.949,8.049,20.969
6.02184,-0.112,-0.865,0.485,-0.052,-0.010,-0.041,1.062,-0.245,0.363,0.257,0.323,-0.314,-1.963,8.049,20.969
6.04185,-0.113,-0.865,0.486,-0.052,-0.011,-0.041,1.006,-0.248,0.346,0.247,0.321,-0.314,-1.963,8.049,20.969
6.06186,-0.112,-0.864,0.488,-0.052,-0.003,-0.034,1.013,-0.248,0.354,0.537,0.321,-0.314,-1.963,8.049,20.969
6.08185,-0.112,-0.864,0.488,-0.052,-0.007,-0.031,1.012,-0.247,0.354,0.239,0.321,-0.314,-1.963,7.935,20.965
6.10183,-0.112,-0.864,0.487,-0.052,-0.017,-0.024,1.006,-0.249,0.355,0.223,0.321,-0.314,-1.963,7.935,20.965
6.12183,-0.112,-0.864,0.487,-0.052,-0.012,-0.028,1.006,-0.245,0.359,0.214,0.307,-0.317,-1.975,7.935,20.965
6.14183,-0.112,-0.864,0.487,-0.052,-0.010,-0.031,1.009,-0.247,0.351,0.238,0.307,-0.317,-1.975,7.935,20.965
6.16184,-0.112,-0.864,0.488,-0.052,-0.017,-0.033,1.006,-0.248,0.351,0.233,0.307,-0.317,-1.975,7.955,20.967
6.18184,-0.112,-0.864,0.488,-0.052,-0.018,-0.028,1.010,-0.248,0.352,0.199,0.307,-0.317,-1.975,7.955,20.967
6.20183,-0.112,-0.864,0.489,-0.052,-0.011,-0.036,1.003,-0.249,0.360,0.243,0.307,-0.317,-1.975,7.955,20.967
6.22185,-0.112,-0.863,0.489,-0.052,-0.013,-0.032,1.006,-0.249,0.352,0.241,0.292,-0.295,-1.956,7.955,20.967
6.24182,-0.112,-0.863,0.489,-0.052,-0.012,-0.033,1.004,-0.252,0.356,0.234,0.292,-0.295,-1.956,8.234,20.969
6.26184,-0.112,-0.863,0.489,-0.052,-0.010,-0.029,1.008,-0.252,0.350,0.265,0.292,-0.295,-1.956,8.234,20.969
6.28184,-0.112,-0.863,0.490,-0.052,-0.005,-0.034,1.015,-0.243,0.356,0.255,0.292,-0.295,-1.956,8.234,20.969
6.30183,-0.112,-0.863,0.490,-0.052,-0.007,-0.035,0.996,-0.248,0.350,0.257,0.292,-0.295,-1.956,8.234,20.969
6.32184,-0.112,-0.863,0.490,-0.052,-0.011,-0.034,1.004,-0.243,0.357,0.224,0.316,-0.315,-1.946,8.264,20.965
6.34183,-0.112,-0.863,0.489,-0.052,-0.008,-0.032,1.005,-0.252,0.356,0.244,0.316,-0.315,-1.946,8.264,20.965
6.36184,-0.112,-0.863,0.489,-0.052,-0.013,-0.027,0.996,-0.248,0.354,0.255,0.316,-0.315,-1.946,8.264,20.965
6.38185,-0.112,-0.863,0.489,-0.052,-0.013,-0.030,1.009,-0.247,0.349,0.250,0.316,-0.315,-1.946,8.264,20.965
6.40183,-0.112,-0.863,0.489,-0.052,-0.011,-0.033,1.012,-0.254,0.356,0.232,0.316,-0.315,-1.946,8.293,20.971
6.42184,-0.112,-0.863,0.489,-0.052,-0.012,-0.036,1.001,-0.245,0.357,0.243,0.313,-0.310,-1.950,8.293,20.971
6.44183,-0.112,-0.863,0.490,-0.052,-0.015,-0.032,1.009,-0.251,0.350,0.243,0.313,-0.310,-1.950,8.293,20.971
6.46183,-0.112,-0.863,0.490,-0.052,-0.010,-0.038,1.015,-0.243,0.354,0.235,0.313,-0.310,-1.950,8.293,20.971
6.48185,-0.112,-0.863,0.489,-0.052,-0.004,-0.035,1.000,-0.245,0.355,0.229,0.313,-0.310,-1.950,8.104,20.962
6.50183,-0.112,-0.863,0.489,-0.052,-0.013,-0.040,1.002,-0.242,0.355,0.238,0.313,-0.310,-1.950,8.104,20.962
6.52184,-0.113,-0.863,0.490,-0.052,-0.012,-0.044,1.012,-0.252,0.351,0.256,0.321,-0.301,-1.953,8.104,20.962
6.54183,-0.113,-0.863,0.490,-0.052,-0.020,-0.041,1.005,-0.249,0.356,0.252,0.321,-0.301,-1.953,8.104,20.962
6.56184,-0.113,-0.863,0.489,-0.052,-0.009,-0.025,1.006,-0.247,0.351,0.249,0.321,-0.301,-1.953,7.774,20.965
6.58185,-0.113,-0.863,0.489,-0.052,-0.021,-0.034,1.015,-0.249,0.352,0.235,0.321,-0.301,-1.953,7.774,20.965
6.60183,-0.113,-0.864,0.489,-0.052,-0.008,-0.030,1.020,-0.248,0.354,0.247,0.321,-0.301,-1.953,7.774,20.965
6.62184,-0.113,-0.864,0.488,-0.052,-0.012,-0.034,1.010,-0.247,0.352,0.228,0.329,-0.313,-1.952,7.774,20.965
6.64184,-0.113,-0.864,0.487,-0.052,-0.015,-0.027,0.992,-0.253,0.354,0.221,0.329,-0.313,-1.952,7.028,20.967
6.66184,-0.112,-0.865,0.487,-0.052,-0.012,-0.030,1.025,-0.246,0.351,0.247,0.329,-0.313,-1.952,7.028,20.967
6.68184,-0.112,-0.865,0.487,-0.052,-0.012,-0.035,1.005,-0.247,0.345,0.229,0.329,-0.313,-1.952,7.028,20.967
6.70184,-0.113,-0.865,0.486,-0.052,-0.012,-0.037,1.006,-0.248,0.354,0.214,0.329,-0.313,-1.952,7.028,20.967
6.72184,-0.112,-0.865,0.486,-0.052,-0.006,-0.030,0.993,-0.247,0.354,0.238,0.316,-0.306,-1.958,7.028,20.967
6.74183,-0.112,-0.865,0.486,-0.052,-0.008,-0.033,0.996,-0.251,0.356,0.246,0.316,-0.306,-1.958,8.102,20.971
6.76185,-0.112,-0.865,0.486,-0.052,-0.010,-0.035,0.976,-0.249,0.345,0.260,0.316,-0.306,-1.958,8.102,20.971
6.78184,-0.113,-0.865,0.486,-0.051,-0.008,-0.034,1.002,-0.257,0.354,0.256,0.316,-0.306,-1.958,8.102,20.971
6.80183,-0.113,-0.865,0.486,-0.051,-0.005,-0.041,1.006,-0.254,0.354,0.229,0.316,-0.306,-1.958,8.102,20.971
6.82185,-0.113,-0.865,0.486,-0.051,-0.010,-0.031,1.006,-0.243,0.350,0.233,0.300,-0.306,-1.957,7.795,20.967
6.84184,-0.112,-0.865,0.486,-0.051,-0.007,-0.030,1.008,-0.254,0.354,0.234,0.300,-0.306,-1.957,7.795,20.967
6.86186,-0.112,-0.865,0.486,-0.051,-0.012,-0.033,0.996,-0.245,0.354,0.245,0.300,-0.306,-1.957,7.795,20.967
6.88183,-0.113,-0.865,0.487,-0.051,-0.013,-0.035,0.996,-0.249,0.357,0.233,0.300,-0.306,-1.957,7.795,20.967
6.90184,-0.113,-0.864,0.488,-0.051,-0.012,-0.041,1.004,-0.249,0.349,0.252,0.300,-0.306,-1.957,8.147,20.971
6.92185,-0.113,-0.864,0.488,-0.051,-0.005,-0.037,1.018,-0.251,0.354,0.236,0.297,-0.303,-1.963,8.147,20.971
6.94184,-0.113,-0.864,0.488,-0.051,-0.008,-0.039,1.008,-0.253,0.351,0.239,0.297,-0.303,-1.963,8.147,20.971
6.96184,-0.113,-0.864,0.488,-0.051,-0.010,-0.038,1.009,-0.246,0.360,0.233,0.297,-0.303,-1.963,8.147,20.971
6.98185,-0.113,-0.864,0.489,-0.051,-0.010,-0.033,1.005,-0.248,0.349,0.244,0.297,-0.303,-1.963,7.746,20.969
7.00183,-0.113,-0.863,0.489,-0.051,-0.013,-0.041,1.007,-0.249,0.350,0.228,0.297,-0.303,-1.963,7.746,20.969
7.02184,-0.113,-0.863,0.489,-0.051,-0.019,-0.032,1.004,-0.252,0.349,0.234,0.325,-0.305,-1.946,7.746,20.969
7.04183,-0.113,-0.864,0.489,-0.051,-0.016,-0.027,1.021,-0.247,0.355,0.229,0.325,-0.305,-1.946,7.746,20.969
7.06185,-0.113,-0.864,0.488,-0.051,-0.008,-0.032,1.004,-0.247,0.357,0.224,0.325,-0.305,-1.946,7.526,20.973
7.08185,-0.113,-0.864,0.487,-0.051,-0.011,-0.036,1.006,-0.249,0.349,0.213,0.325,-0.305,-1.946,7.526,20.973
7.10184,-0.113,-0.865,0.487,-0.051,-0.014,-0.038,1.010,-0.245,0.354,0.217,0.327,-0.310,-1.945,7.526,20.973
7.12184,-0.113,-0.865,0.487,-0.051,-0.011,-0.038,1.008,-0.251,0.359,0.234,0.327,-0.310,-1.945,7.526,20.973
7.14183,-0.113,-0.865,0.486,-0.051,-0.015,-0.030,1.000,-0.245,0.352,0.234,0.327,-0.310,-1.945,8.443,20.973
7.16184,-0.113,-0.865,0.486,-0.051,-0.010,-0.035,1.006,-0.248,0.356,0.216,0.327,-0.310,-1.945,8.443,20.973
7.18185,-0.113,-0.865,0.486,-0.051,-0.013,-0.037,1.004,-0.247,0.357,0.218,0.327,-0.310,-1.945,8.443,20.973
7.20184,-0.113,-0.865,0.486,-0.051,-0.007,-0.037,1.002,-0.245,0.349,0.218,0.308,-0.313,-1.955,8.443,20.973
7.22184,-0.113,-0.865,0.486,-0.051,-0.012,-0.033,1.005,-0.246,0.354,0.240,0.308,-0.313,-1.955,7.250,20.975
7.24181,-0.113,-0.865,0.486,-0.051,-0.010,-0.030,1.009,-0.253,0.355,0.241,0.308,-0.313,-1.955,7.250,20.975
7.26184,-0.113,-0.865,0.486,-0.051,-0.010,-0.033,1.003,-0.253,0.356,0.225,0.308,-0.313,-1.955,7.250,20.975
7.28185,-0.113,-0.865,0.487,-0.051,-0.013,-0.040,1.008,-0.246,0.359,0.235,0.308,-0.313,-1.955,7.250,20.975
7.30183,-0.113,-0.865,0.486,-0.051,-0.009,-0.034,0.999,-0.252,0.349,0.249,0.329,-0.291,-1.954,7.315,20.975
7.32185,-0.113,-0.865,0.485,-0.051,-0.017,-0.030,1.004,-0.247,0.355,0.240,0.329,-0.291,-1.954,7.315,20.975
7.34183,-0.113,-0.865,0.487,-0.052,-0.012,-0.027,1.004,-0.242,0.350,0.537,0.329,-0.291,-1.954,7.315,20.975
7.36184,-0.113,-0.865,0.486,-0.052,-0.010,-0.034,1.009,-0.251,0.352,0.246,0.329,-0.291,-1.954,7.315,20.975
7.38185,-0.113,-0.865,0.486,-0.052,-0.013,-0.034,0.996,-0.254,0.357,0.255,0.329,-0.291,-1.954,8.039,20.971
7.40183,-0.113,-0.867,0.483,-0.051,-0.006,-0.034,1.008,-0.251,0.354,-0.054,0.326,-0.324,-1.943,8.039,20.971
7.42184,-0.113,-0.867,0.483,-0.051,-0.011,-0.031,1.006,-0.253,0.351,0.241,0.326,-0.324,-1.943,8.039,20.971
7.44183,-0.113,-0.867,0.483,-0.051,-0.012,-0.029,1.006,-0.249,0.348,0.233,0.326,-0.324,-1.943,8.039,20.971
7.46184,-0.113,-0.867,0.483,-0.051,-0.006,-0.028,1.007,-0.251,0.360,0.239,0.326,-0.324,-1.943,7.416,20.977
7.48185,-0.113,-0.867,0.483,-0.051,-0.014,-0.035,0.997,-0.251,0.356,0.240,0.326,-0.324,-1.943,7.416,20.977
7.50183,-0.113,-0.867,0.483,-0.051,-0.006,-0.031,1.005,-0.247,0.352,0.241,0.320,-0.320,-1.960,7.416,20.977
7.52184,-0.113,-0.867,0.483,-0.051,-0.012,-0.031,1.009,-0.246,0.354,0.236,0.320,-0.320,-1.960,7.416,20.977
7.54183,-0.113,-0.867,0.483,-0.051,-0.006,-0.033,1.006,-0.247,0.343,0.272,0.320,-0.320,-1.960,8.102,20.977
7.56184,-0.113,-0.867,0.483,-0.051,-0.004,-0.037,1.003,-0.253,0.360,0.262,0.320,-0.320,-1.960,8.102,20.977
7.58184,-0.113,-0.868,0.481,-0.051,-0.016,-0.027,0.991,-0.241,0.346,-0.054,0.320,-0.320,-1.960,8.102,20.977
7.60183,-0.112,-0.868,0.481,-0.051,-0.009,-0.029,1.018,-0.247,0.349,0.240,0.311,-0.311,-1.950,8.102,20.977
7.62186,-0.112,-0.868,0.481,-0.051,0.007,-0.036,1.007,-0.256,0.349,0.266,0.311,-0.311,-1.950,8.014,20.979
7.64184,-0.112,-0.868,0.481,-0.051,-0.012,-0.037,1.013,-0.248,0.354,0.240,0.311,-0.311,-1.950,8.014,20.979
7.66185,-0.112,-0.868,0.482,-0.051,-0.012,-0.031,1.014,-0.251,0.352,0.240,0.311,-0.311,-1.950,8.014,20.979
7.68184,-0.112,-0.868,0.482,-0.051,-0.010,-0.025,1.011,-0.251,0.351,0.239,0.311,-0.311,-1.950,8.014,20.979
7.70183,-0.112,-0.867,0.482,-0.051,-0.007,-0.038,0.998,-0.245,0.356,0.250,0.312,-0.330,-1.964,8.014,20.975
7.72182,-0.112,-0.867,0.483,-0.051,-0.009,-0.028,1.005,-0.251,0.354,0.252,0.312,-0.330,-1.964,8.405,20.975
7.74183,-0.112,-0.867,0.483,-0.051,-0.007,-0.036,1.008,-0.249,0.355,0.241,0.312,-0.330,-1.964,8.405,20.975
7.76185,-0.112,-0.866,0.484,-0.051,-0.012,-0.039,1.005,-0.248,0.359,0.244,0.312,-0.330,-1.964,8.405,20.975
7.78185,-0.112,-0.865,0.486,-0.051,-0.015,-0.037,0.997,-0.247,0.356,0.251,0.312,-0.330,-1.964,8.405,20.975
7.80184,-0.112,-0.866,0.485,-0.051,-0.006,-0.032,1.004,-0.241,0.350,0.277,0.327,-0.306,-1.932,8.887,20.977
7.82185,-0.112,-0.866,0.485,-0.051,-0.010,-0.028,0.992,-0.249,0.356,0.251,0.327,-0.306,-1.932,8.887,20.977
7.84184,-0.112,-0.866,0.484,-0.051,-0.008,-0.036,1.007,-0.248,0.348,0.254,0.327,-0.306,-1.932,8.887,20.977
7.86185,-0.112,-0.866,0.484,-0.051,-0.007,-0.035,0.995,-0.252,0.350,0.240,0.327,-0.306,-1.932,8.887,20.977
7.88185,-0.112,-0.867,0.484,-0.051,-0.011,-0.034,1.006,-0.252,0.354,0.250,0.327,-0.306,-1.932,8.671,20.977
7.90184,-0.112,-0.867,0.483,-0.051,-0.009,-0.030,1.004,-0.247,0.365,0.232,0.326,-0.304,-1.922,8.671,20.977
7.92183,-0.112,-0.867,0.483,-0.051,-0.013,-0.028,1.019,-0.241,0.356,0.238,0.326,-0.304,-1.922,8.671,20.977
7.94184,-0.112,-0.867,0.482,-0.051,-0.014,-0.039,1.015,-0.245,0.355,0.214,0.326,-0.304,-1.922,8.671,20.977
7.96185,-0.112,-0.868,0.482,-0.051,-0.006,-0.036,0.994,-0.249,0.352,0.212,0.326,-0.304,-1.922,8.844,20.981
7.98185,-0.112,-0.868,0.481,-0.051,-0.008,-0.034,1.005,-0.252,0.349,0.216,0.326,-0.304,-1.922,8.844,20.981
8.00184,-0.112,-0.868,0.481,-0.051,-0.010,-0.036,1.001,-0.245,0.352,0.217,0.330,-0.304,-1.947,8.844,20.981
8.02184,-0.112,-0.869,0.480,-0.051,-0.008,-0.026,1.006,-0.254,0.356,0.243,0.330,-0.304,-1.947,8.844,20.981
8.04185,-0.112,-0.869,0.480,-0.051,-0.012,-0.036,1.007,-0.252,0.354,0.221,0.330,-0.304,-1.947,8.507,20.983
8.06184,-0.112,-0.869,0.479,-0.051,-0.007,-0.040,0.998,-0.247,0.362,0.218,0.330,-0.304,-1.947,8.507,20.983
8.08184,-0.112,-0.869,0.479,-0.051,-0.007,-0.031,1.005,-0.249,0.350,0.252,0.330,-0.304,-1.947,8.507,20.983
8.10184,-0.113,-0.869,0.479,-0.051,-0.021,-0.033,1.010,-0.256,0.360,0.247,0.325,-0.312,-1.954,8.507,20.983
8.12184,-0.113,-0.869,0.480,-0.051,-0.005,-0.040,0.996,-0.248,0.349,0.262,0.325,-0.312,-1.954,8.437,20.985
8.14182,-0.112,-0.869,0.479,-0.051,-0.007,-0.032,1.008,-0.245,0.355,0.218,0.325,-0.312,-1.954,8.437,20.985
8.16184,-0.112,-0.869,0.479,-0.051,-0.011,-0.029,1.003,-0.252,0.357,0.218,0.325,-0.312,-1.954,8.437,20.985
8.18184,-0.112,-0.869,0.479,-0.051,-0.015,-0.031,1.006,-0.246,0.349,0.225,0.323,-0.292,-1.975,8.437,20.985
8.20184,-0.112,-0.870,0.478,-0.051,-0.010,-0.034,1.007,-0.251,0.355,0.221,0.323,-0.292,-1.975,8.903,20.981
8.22185,-0.112,-0.870,0.478,-0.051,-0.008,-0.037,1.005,-0.252,0.357,0.236,0.323,-0.292,-1.975,8.903,20.981
8.24183,-0.112,-0.870,0.477,-0.051,-0.003,-0.029,1.003,-0.249,0.354,0.239,0.323,-0.292,-1.975,8.903,20.981
8.26184,-0.112,-0.870,0.477,-0.051,-0.009,-0.038,0.991,-0.241,0.360,0.247,0.323,-0.292,-1.975,8.903,20.981
8.28184,-0.112,-0.870,0.477,-0.052,-0.010,-0.030,0.998,-0.252,0.355,0.257,0.325,-0.303,-1.972,8.653,20.990
8.30184,-0.112,-0.870,0.477,-0.052,-0.012,-0.035,1.001,-0.252,0.357,0.238,0.325,-0.303,-1.972,8.653,20.990
8.32186,-0.112,-0.870,0.477,-0.051,-0.006,-0.044,1.001,-0.246,0.346,0.250,0.325,-0.303,-1.972,8.653,20.990
8.34184,-0.112,-0.870,0.477,-0.051,-0.013,-0.029,0.998,-0.243,0.349,0.238,0.325,-0.303,-1.972,8.653,20.990
8.36184,-0.112,-0.870,0.477,-0.052,-0.020,-0.034,1.008,-0.245,0.351,0.258,0.325,-0.303,-1.972,8.246,20.985
8.38184,-0.112,-0.870,0.478,-0.052,-0.008,-0.031,1.000,-0.248,0.357,0.254,0.324,-0.321,-1.948,8.246,20.985
8.40184,-0.112,-0.869,0.478,-0.052,-0.011,-0.045,1.017,-0.252,0.348,0.239,0.324,-0.321,-1.948,8.246,20.985
8.42184,-0.112,-0.869,0.478,-0.052,-0.011,-0.028,1.011,-0.248,0.351,0.223,0.324,-0.321,-1.948,8.246,20.985
8.44185,-0.112,-0.869,0.479,-0.051,-0.010,-0.044,0.992,-0.249,0.350,0.234,0.324,-0.321,-1.948,7.978,20.987
8.46183,-0.112,-0.869,0.479,-0.051,-0.007,-0.032,1.004,-0.253,0.354,0.250,0.324,-0.321,-1.948,7.978,20.987
8.48185,-0.112,-0.869,0.480,-0.052,-0.022,-0.022,1.007,-0.247,0.354,0.255,0.308,-0.302,-1.950,7.978,20.987
8.50184,-0.112,-0.869,0.480,-0.052,-0.010,-0.025,1.027,-0.242,0.356,0.240,0.308,-0.302,-1.950,7.978,20.987
8.52184,-0.112,-0.869,0.480,-0.052,-0.007,-0.032,0.994,-0.248,0.362,0.244,0.308,-0.302,-1.950,7.850,20.983
8.54184,-0.112,-0.869,0.480,-0.052,-0.011,-0.037,1.006,-0.245,0.355,0.225,0.308,-0.302,-1.950,7.850,20.983
8.56183,-0.112,-0.869,0.478,-0.052,-0.023,-0.033,1.007,-0.248,0.354,-0.056,0.308,-0.302,-1.950,7.850,20.983
8.58185,-0.112,-0.870,0.478,-0.052,-0.014,-0.023,0.997,-0.252,0.348,0.222,0.315,-0.292,-1.946,7.850,20.983
8.60183,-0.112,-0.870,0.478,-0.052,-0.011,-0.031,1.012,-0.240,0.348,0.218,0.315,-0.292,-1.946,8.504,20.985
8.62183,-0.112,-0.870,0.477,-0.052,-0.013,-0.025,1.007,-0.245,0.359,0.244,0.315,-0.292,-1.946,8.504,20.985
8.64185,-0.112,-0.870,0.477,-0.052,-0.011,-0.037,1.007,-0.243,0.354,0.218,0.315,-0.292,-1.946,8.504,20.985
8.66183,-0.112,-0.870,0.477,-0.052,-0.010,-0.033,0.994,-0.243,0.350,0.255,0.315,-0.292,-1.946,8.504,20.985
8.68184,-0.112,-0.870,0.477,-0.052,-0.010,-0.025,0.999,-0.252,0.351,0.234,0.317,-0.305,-1.952,8.372,20.985
8.70184,-0.112,-0.870,0.477,-0.052,-0.009,-0.035,1.000,-0.251,0.352,0.235,0.317,-0.305,-1.952,8.372,20.985
8.72184,-0.112,-0.870,0.477,-0.052,-0.016,-0.030,1.013,-0.247,0.355,0.234,0.317,-0.305,-1.952,8.372,20.985
8.74184,-0.112,-0.870,0.478,-0.052,-0.010,-0.044,1.012,-0.248,0.348,0.230,0.317,-0.305,-1.952,8.372,20.985
8.76183,-0.112,-0.869,0.478,-0.052,-0.014,-0.036,1.006,-0.251,0.359,0.217,0.317,-0.305,-1.952,8.372,20.985
8.78186,-0.112,-0.869,0.478,-0.052,-0.011,-0.039,1.006,-0.249,0.361,0.233,0.325,-0.305,-1.966,8.529,20.990
8.80184,-0.112,-0.870,0.478,-0.052,0.001,-0.038,1.011,-0.247,0.346,0.229,0.325,-0.305,-1.966,8.529,20.990
8.82184,-0.112,-0.869,0.478,-0.052,-0.017,-0.037,1.012,-0.248,0.359,0.249,0.325,-0.305,-1.966,8.529,20.990
8.84185,-0.112,-0.869,0.478,-0.052,-0.011,-0.033,1.002,-0.253,0.350,0.224,0.325,-0.305,-1.966,8.529,20.990
8.86184,-0.112,-0.869,0.478,-0.052,-0.015,-0.035,1.003,-0.248,0.354,0.218,0.325,-0.305,-1.966,8.039,20.987
8.88185,-0.112,-0.869,0.479,-0.052,-0.012,-0.037,1.007,-0.251,0.359,0.243,0.328,-0.318,-1.958,8.039,20.987
8.90185,-0.113,-0.869,0.479,-0.052,-0.014,-0.037,0.988,-0.249,0.352,0.239,0.328,-0.318,-1.958,8.039,20.987
8.92183,-0.112,-0.867,0.482,-0.052,-0.011,-0.034,1.010,-0.252,0.355,0.533,0.328,-0.318,-1.958,8.039,20.987
8.94184,-0.113,-0.867,0.482,-0.052,-0.013,-0.041,1.008,-0.248,0.352,0.235,0.328,-0.318,-1.958,8.708,20.987
8.96182,-0.113,-0.867,0.482,-0.052,-0.006,-0.036,0.998,-0.243,0.356,0.251,0.328,-0.318,-1.958,8.708,20.987
8.98183,-0.113,-0.869,0.480,-0.052,-0.012,-0.027,1.009,-0.251,0.356,-0.068,0.322,-0.325,-1.964,8.708,20.987
9.00186,-0.113,-0.868,0.480,-0.052,-0.013,-0.035,1.061,-0.259,0.351,0.252,0.322,-0.325,-1.964,8.708,20.987
9.02183,-0.113,-0.868,0.480,-0.052,0.003,-0.032,1.002,-0.251,0.355,0.239,0.322,-0.325,-1.964,9.013,20.992
9.04184,-0.113,-0.870,0.478,-0.051,-0.006,-0.034,0.993,-0.251,0.356,-0.032,0.322,-0.325,-1.964,9.013,20.992
9.06182,-0.113,-0.869,0.479,-0.051,-0.013,-0.035,1.008,-0.252,0.346,0.240,0.322,-0.325,-1.964,9.013,20.992
9.08185,-0.113,-0.869,0.479,-0.051,-0.010,-0.031,1.011,-0.249,0.348,0.263,0.317,-0.323,-1.951,9.013,20.992
9.10184,-0.113,-0.869,0.480,-0.051,-0.014,-0.033,1.023,-0.256,0.359,0.255,0.317,-0.323,-1.951,8.295,20.996
9.12184,-0.113,-0.868,0.480,-0.051,-0.008,-0.034,1.005,-0.248,0.356,0.232,0.317,-0.323,-1.951,8.295,20.996
9.14184,-0.113,-0.868,0.481,-0.051,-0.005,-0.041,1.008,-0.253,0.356,0.235,0.317,-0.323,-1.951,8.295,20.996
9.16182,-0.113,-0.867,0.482,-0.051,-0.019,-0.038,1.006,-0.256,0.360,0.258,0.304,-0.303,-1.971,8.295,20.996
9.18185,-0.113,-0.867,0.482,-0.051,-0.004,-0.033,1.002,-0.248,0.357,0.239,0.304,-0.303,-1.971,8.734,20.994
9.20184,-0.113,-0.868,0.482,-0.051,-0.007,-0.027,1.014,-0.248,0.351,0.230,0.304,-0.303,-1.971,8.734,20.994
9.22184,-0.113,-0.867,0.482,-0.051,-0.010,-0.037,1.005,-0.242,0.352,0.244,0.304,-0.303,-1.971,8.734,20.994
9.24185,-0.113,-0.867,0.483,-0.051,-0.010,-0.036,1.007,-0.245,0.356,0.238,0.304,-0.303,-1.971,8.734,20.994
9.26182,-0.113,-0.867,0.483,-0.051,-0.010,-0.037,1.008,-0.251,0.355,0.222,0.317,-0.335,-1.965,8.140,20.990
9.28185,-0.113,-0.866,0.484,-0.051,-0.014,-0.035,0.999,-0.242,0.366,0.222,0.317,-0.335,-1.965,8.140,20.990
9.30184,-0.113,-0.866,0.485,-0.051,-0.012,-0.037,1.001,-0.241,0.349,0.229,0.317,-0.335,-1.965,8.140,20.990
9.32183,-0.113,-0.866,0.485,-0.051,-0.010,-0.030,1.017,-0.248,0.356,0.216,0.317,-0.335,-1.965,8.140,20.990
9.34184,-0.112,-0.866,0.485,-0.051,0.001,-0.028,1.008,-0.246,0.352,0.258,0.317,-0.335,-1.965,8.140,20.992
9.36183,-0.112,-0.866,0.485,-0.051,-0.012,-0.035,1.001,-0.249,0.355,0.219,0.312,-0.328,-1.952,8.140,20.992
9.38184,-0.113,-0.865,0.486,-0.051,-0.013,-0.040,1.024,-0.249,0.349,0.232,0.312,-0.328,-1.952,8.140,20.992
9.40182,-0.112,-0.866,0.485,-0.051,0.003,-0.028,1.014,-0.252,0.348,0.234,0.312,-0.328,-1.952,8.140,20.992
9.42184,-0.112,-0.865,0.486,-0.051,-0.010,-0.037,0.998,-0.243,0.352,0.238,0.312,-0.328,-1.952,8.354,20.996
9.44184,-0.112,-0.865,0.487,-0.051,-0.009,-0.041,1.003,-0.251,0.350,0.250,0.312,-0.328,-1.952,8.354,20.996
9.46182,-0.113,-0.864,0.488,-0.051,-0.016,-0.038,1.003,-0.252,0.345,0.239,0.307,-0.320,-1.956,8.354,20.996
9.48185,-0.113,-0.864,0.488,-0.051,-0.008,-0.035,1.008,-0.252,0.352,0.260,0.307,-0.320,-1.956,8.354,20.996
9.50184,-0.113,-0.864,0.489,-0.051,-0.015,-0.030,0.998,-0.249,0.352,0.256,0.307,-0.320,-1.956,7.665,20.992
9.52183,-0.113,-0.863,0.489,-0.051,-0.009,-0.033,1.015,-0.249,0.348,0.257,0.307,-0.320,-1.956,7.665,20.992
9.54184,-0.113,-0.863,0.490,-0.051,-0.011,-0.041,1.007,-0.246,0.360,0.239,0.307,-0.320,-1.956,7.665,20.992
9.56182,-0.113,-0.863,0.490,-0.051,-0.007,-0.036,1.001,-0.249,0.354,0.236,0.306,-0.313,-1.957,7.665,20.992
9.58185,-0.113,-0.863,0.490,-0.051,-0.015,-0.033,1.027,-0.249,0.352,0.247,0.306,-0.313,-1.957,8.035,20.994
9.60184,-0.113,-0.863,0.490,-0.051,-0.004,-0.041,1.007,-0.248,0.355,0.222,0.306,-0.313,-1.957,8.035,20.994
9.62183,-0.113,-0.863,0.490,-0.050,-0.010,-0.031,1.008,-0.257,0.352,0.229,0.306,-0.313,-1.957,8.035,20.994
9.64184,-0.113,-0.863,0.490,-0.050,-0.009,-0.032,0.986,-0.254,0.354,0.255,0.306,-0.313,-1.957,8.035,20.994
9.66182,-0.113,-0.863,0.490,-0.051,-0.016,-0.027,0.994,-0.245,0.354,0.210,0.311,-0.301,-1.963,8.086,20.996
9.68186,-0.113,-0.863,0.489,-0.051,-0.011,-0.028,0.998,-0.238,0.354,0.227,0.311,-0.301,-1.963,8.086,20.996
9.70185,-0.113,-0.864,0.489,-0.051,-0.011,-0.036,1.004,-0.249,0.351,0.203,0.311,-0.301,-1.963,8.086,20.996
9.72183,-0.113,-0.864,0.489,-0.051,-0.008,-0.031,1.005,-0.245,0.352,0.260,0.311,-0.301,-1.963,8.086,20.996
9.74184,-0.112,-0.864,0.489,-0.051,-0.013,-0.028,0.993,-0.242,0.350,0.254,0.311,-0.301,-1.963,7.665,20.996
9.76183,-0.113,-0.864,0.489,-0.051,-0.012,-0.040,1.013,-0.246,0.359,0.246,0.317,-0.315,-1.966,7.665,20.996
9.78185,-0.112,-0.864,0.489,-0.051,-0.006,-0.030,1.007,-0.251,0.355,0.257,0.317,-0.315,-1.966,7.665,20.996
9.80184,-0.113,-0.863,0.489,-0.051,-0.014,-0.037,1.009,-0.245,0.356,0.263,0.317,-0.315,-1.966,7.665,20.996
9.82183,-0.112,-0.864,0.489,-0.051,-0.000,-0.031,1.005,-0.252,0.359,0.266,0.317,-0.315,-1.966,7.665,20.996
9.84185,-0.112,-0.864,0.488,-0.051,-0.007,-0.035,1.016,-0.253,0.355,0.227,0.317,-0.315,-1.966,7.758,20.996
9.8618,-0.112,-0.864,0.488,-0.051,-0.010,-0.032,1.007,-0.242,0.350,0.241,0.326,-0.311,-1.969,7.758,20.996
9.88185,-0.113,-0.864,0.488,-0.051,-0.015,-0.041,1.020,-0.252,0.355,0.250,0.326,-0.311,-1.969,7.758,20.996
9.90187,-0.113,-0.864,0.488,-0.051,-0.010,-0.044,0.996,-0.236,0.355,0.262,0.326,-0.311,-1.969,7.758,20.996
9.92183,-0.113,-0.864,0.488,-0.051,-0.009,-0.028,1.001,-0.253,0.346,0.266,0.326,-0.311,-1.969,8.358,20.994
9.94184,-0.113,-0.864,0.488,-0.051,-0.015,-0.032,0.997,-0.248,0.348,0.263,0.326,-0.311,-1.969,8.358,20.994
9.96183,-0.112,-0.864,0.489,-0.051,-0.005,-0.030,1.001,-0.240,0.352,0.261,0.300,-0.337,-1.972,8.358,20.994
9.98185,-0.112,-0.863,0.490,-0.051,-0.009,-0.033,1.003,-0.249,0.354,0.263,0.300,-0.337,-1.972,8.358,20.994
10.0018,-0.112,-0.863,0.490,-0.051,0.000,-0.029,0.996,-0.247,0.355,0.274,0.300,-0.337,-1.972,8.033,21.002
10.0218,-0.112,-0.863,0.490,-0.050,-0.004,-0.034,1.005,-0.248,0.350,0.218,0.300,-0.337,-1.972,8.033,21.002
10.0418,-0.112,-0.862,0.491,-0.051,-0.010,-0.027,1.012,-0.247,0.354,0.256,0.300,-0.337,-1.972,8.033,21.002
10.0618,-0.112,-0.862,0.492,-0.051,-0.014,-0.035,0.986,-0.245,0.351,0.255,0.323,-0.327,-1.952,8.033,21.002
10.0819,-0.112,-0.862,0.492,-0.051,-0.011,-0.037,1.016,-0.252,0.352,0.224,0.323,-0.327,-1.952,8.075,20.998
10.1018,-0.112,-0.862,0.491,-0.051,-0.011,-0.030,1.010,-0.251,0.345,0.249,0.323,-0.327,-1.952,8.075,20.998
10.1218,-0.112,-0.862,0.492,-0.051,-0.018,-0.033,1.012,-0.246,0.341,0.240,0.323,-0.327,-1.952,8.075,20.998
10.1418,-0.112,-0.862,0.492,-0.051,-0.007,-0.034,1.014,-0.247,0.357,0.239,0.323,-0.327,-1.952,8.075,20.998
10.1618,-0.112,-0.862,0.492,-0.051,-0.012,-0.033,1.015,-0.257,0.357,0.247,0.327,-0.342,-1.956,7.813,21.000
10.1819,-0.112,-0.862,0.492,-0.051,-0.016,-0.033,1.006,-0.243,0.351,0.249,0.327,-0.342,-1.956,7.813,21.000
10.2018,-0.112,-0.862,0.492,-0.050,-0.001,-0.042,1.016,-0.248,0.360,0.222,0.327,-0.342,-1.956,7.813,21.000
10.2218,-0.112,-0.862,0.492,-0.050,-0.014,-0.037,1.006,-0.243,0.356,0.238,0.327,-0.342,-1.956,7.813,21.000
10.2418,-0.112,-0.862,0.492,-0.050,-0.012,-0.034,1.009,-0.247,0.352,0.221,0.323,-0.330,-1.963,8.702,21.004
10.2618,-0.112,-0.862,0.492,-0.050,-0.009,-0.032,1.008,-0.251,0.354,0.235,0.323,-0.330,-1.963,8.702,21.004
10.2818,-0.113,-0.862,0.492,-0.050,-0.011,-0.040,1.010,-0.248,0.352,0.230,0.323,-0.330,-1.963,8.702,21.004
10.3018,-0.112,-0.862,0.492,-0.050,-0.005,-0.027,0.999,-0.242,0.357,0.236,0.323,-0.330,-1.963,8.702,21.004
10.3218,-0.112,-0.862,0.491,-0.050,-0.008,-0.031,1.008,-0.249,0.350,0.229,0.323,-0.330,-1.963,8.586,21.002
10.3418,-0.112,-0.862,0.492,-0.050,-0.014,-0.032,1.004,-0.245,0.352,0.232,0.320,-0.333,-1.979,8.586,21.002
10.3619,-0.112,-0.862,0.492,-0.050,-0.009,-0.035,1.001,-0.243,0.354,0.238,0.320,-0.333,-1.979,8.586,21.002
10.3818,-0.112,-0.860,0.495,-0.051,-0.011,-0.036,1.010,-0.248,0.359,0.533,0.320,-0.333,-1.979,8.586,21.002
10.4019,-0.112,-0.860,0.495,-0.051,-0.010,-0.030,0.940,-0.243,0.356,0.268,0.320,-0.333,-1.979,8.771,21.002
10.4218,-0.112,-0.860,0.495,-0.051,-0.002,-0.046,1.003,-0.241,0.351,0.263,0.320,-0.333,-1.979,8.771,21.002
10.4418,-0.112,-0.862,0.492,-0.050,-0.018,-0.029,0.997,-0.245,0.352,-0.053,0.328,-0.318,-1.952,8.771,21.002
10.4618,-0.112,-0.862,0.492,-0.050,-0.008,-0.036,1.008,-0.247,0.350,0.249,0.328,-0.318,-1.952,8.771,21.002
10.4819,-0.112,-0.862,0.492,-0.050,-0.006,-0.030,1.008,-0.252,0.348,0.266,0.328,-0.318,-1.952,8.183,21.006
10.5018,-0.112,-0.862,0.492,-0.050,-0.016,-0.033,1.020,-0.248,0.350,0.269,0.328,-0.318,-1.952,8.183,21.006
10.5218,-0.112,-0.862,0.491,-0.050,-0.011,-0.033,1.009,-0.251,0.350,0.222,0.328,-0.318,-1.952,8.183,21.006
10.5418,-0.112,-0.862,0.492,-0.050,-0.018,-0.034,0.997,-0.246,0.348,0.202,0.320,-0.346,-1.957,8.183,21.006
10.5619,-0.113,-0.862,0.492,-0.050,-0.016,-0.033,1.002,-0.247,0.351,0.194,0.320,-0.346,-1.957,8.525,21.004
10.5819,-0.112,-0.862,0.492,-0.050,-0.004,-0.032,1.008,-0.246,0.354,0.227,0.320,-0.346,-1.957,8.525,21.004
10.6018,-0.112,-0.862,0.492,-0.050,-0.001,-0.031,1.007,-0.252,0.359,0.223,0.320,-0.346,-1.957,8.525,21.004
10.6218,-0.113,-0.862,0.492,-0.050,-0.009,-0.039,1.010,-0.254,0.354,0.235,0.320,-0.346,-1.957,8.525,21.004
10.6418,-0.113,-0.861,0.493,-0.050,-0.010,-0.038,1.001,-0.246,0.352,0.255,0.304,-0.334,-1.955,8.549,21.004
10.6618,-0.113,-0.861,0.494,-0.050,-0.012,-0.040,0.999,-0.249,0.359,0.250,0.304,-0.334,-1.955,8.549,21.004
10.6819,-0.113,-0.860,0.495,-0.050,-0.019,-0.032,0.996,-0.251,0.352,0.252,0.304,-0.334,-1.955,8.549,21.004
10.7019,-0.113,-0.860,0.496,-0.050,-0.014,-0.033,1.005,-0.246,0.354,0.233,0.304,-0.334,-1.955,8.549,21.004
10.7218,-0.113,-0.859,0.496,-0.050,-0.009,-0.041,1.014,-0.251,0.360,0.214,0.304,-0.334,-1.955,8.598,21.004
10.7418,-0.113,-0.859,0.496,-0.050,-0.015,-0.030,0.997,-0.252,0.354,0.207,0.314,-0.333,-1.944,8.598,21.004
10.7618,-0.113,-0.859,0.497,-0.050,-0.019,-0.040,0.999,-0.246,0.356,0.217,0.314,-0.333,-1.944,8.598,21.004
10.7818,-0.113,-0.859,0.497,-0.050,-0.013,-0.029,1.001,-0.248,0.352,0.233,0.314,-0.333,-1.944,8.598,21.004
10.8018,-0.113,-0.859,0.496,-0.050,-0.001,-0.038,1.004,-0.251,0.349,0.244,0.314,-0.333,-1.944,8.598,21.004
10.8218,-0.113,-0.859,0.496,-0.050,-0.009,-0.033,1.002,-0.254,0.356,0.232,0.314,-0.333,-1.944,8.549,21.002
10.8418,-0.113,-0.859,0.497,-0.050,-0.011,-0.032,0.999,-0.243,0.356,0.234,0.310,-0.331,-1.960,8.549,21.002
10.8618,-0.113,-0.859,0.496,-0.050,-0.005,-0.030,1.016,-0.243,0.345,0.233,0.310,-0.331,-1.960,8.549,21.002
10.8818,-0.113,-0.859,0.496,-0.050,-0.004,-0.036,1.007,-0.247,0.350,0.246,0.310,-0.331,-1.960,8.549,21.002
10.9018,-0.113,-0.859,0.497,-0.050,-0.014,-0.038,1.009,-0.246,0.355,0.235,0.310,-0.331,-1.960,8.226,21.008
10.9218,-0.113,-0.859,0.497,-0.050,-0.010,-0.039,1.012,-0.247,0.354,0.241,0.310,-0.331,-1.960,8.226,21.008
10.9418,-0.113,-0.859,0.497,-0.050,-0.015,-0.028,0.999,-0.248,0.349,0.260,0.317,-0.315,-1.967,8.226,21.008
10.9618,-0.113,-0.859,0.498,-0.050,-0.026,-0.033,1.010,-0.242,0.355,0.265,0.317,-0.315,-1.967,8.226,21.008
10.9818,-0.113,-0.859,0.497,-0.050,-0.012,-0.031,1.008,-0.249,0.350,0.252,0.317,-0.315,-1.967,8.336,21.002
11.0018,-0.113,-0.859,0.497,-0.050,-0.005,-0.032,1.007,-0.252,0.350,0.227,0.317,-0.315,-1.967,8.336,21.002
11.0218,-0.113,-0.859,0.496,-0.050,-0.011,-0.034,0.991,-0.252,0.356,0.228,0.317,-0.315,-1.967,8.336,21.002
11.0418,-0.113,-0.860,0.495,-0.050,-0.010,-0.032,0.997,-0.253,0.350,0.236,0.328,-0.304,-1.969,8.336,21.002
11.0618,-0.113,-0.860,0.495,-0.050,-0.018,-0.032,1.009,-0.248,0.357,0.229,0.328,-0.304,-1.969,8.509,21.006
11.0818,-0.113,-0.861,0.494,-0.050,-0.007,-0.031,1.007,-0.246,0.351,0.232,0.328,-0.304,-1.969,8.509,21.006
11.1019,-0.113,-0.861,0.493,-0.050,-0.007,-0.034,1.002,-0.243,0.356,0.245,0.328,-0.304,-1.969,8.509,21.006
11.1218,-0.113,-0.862,0.491,-0.050,-0.005,-0.030,1.006,-0.247,0.359,0.207,0.328,-0.304,-1.969,8.509,21.006
11.1419,-0.113,-0.862,0.491,-0.050,-0.010,-0.024,0.993,-0.249,0.349,0.222,0.317,-0.330,-1.959,7.966,21.004
11.1618,-0.113,-0.862,0.491,-0.050,-0.019,-0.031,1.007,-0.254,0.356,0.255,0.317,-0.330,-1.959,7.966,21.004
11.1818,-0.113,-0.862,0.491,-0.050,-0.009,-0.026,1.001,-0.249,0.357,0.221,0.317,-0.330,-1.959,7.966,21.004
11.2018,-0.113,-0.862,0.491,-0.050,-0.011,-0.031,1.006,-0.257,0.348,0.232,0.317,-0.330,-1.959,7.966,21.004
11.2218,-0.113,-0.862,0.491,-0.050,-0.005,-0.041,1.008,-0.246,0.354,0.243,0.317,-0.330,-1.959,8.106,21.010
11.2418,-0.113,-0.862,0.491,-0.050,-0.004,-0.033,1.007,-0.257,0.355,0.212,0.318,-0.328,-1.961,8.106,21.010
11.2618,-0.113,-0.863,0.490,-0.050,-0.011,-0.020,0.994,-0.253,0.344,0.234,0.318,-0.328,-1.961,8.106,21.010
11.2818,-0.112,-0.863,0.490,-0.050,-0.007,-0.026,0.998,-0.248,0.345,0.240,0.318,-0.328,-1.961,8.106,21.010
11.3018,-0.113,-0.863,0.490,-0.050,-0.007,-0.038,1.011,-0.252,0.354,0.255,0.318,-0.328,-1.961,8.352,21.006
11.3218,-0.113,-0.862,0.491,-0.050,-0.017,-0.037,0.985,-0.245,0.360,0.256,0.317,-0.335,-1.958,8.352,21.006
11.3418,-0.112,-0.862,0.491,-0.050,-0.007,-0.026,1.009,-0.248,0.352,0.244,0.317,-0.335,-1.958,8.352,21.006
11.3618,-0.112,-0.862,0.491,-0.050,-0.009,-0.027,1.005,-0.252,0.356,0.238,0.317,-0.335,-1.958,8.352,21.006
11.3818,-0.112,-0.862,0.492,-0.050,-0.008,-0.038,1.002,-0.242,0.352,0.245,0.317,-0.335,-1.958,8.000,21.008
11.4018,-0.112,-0.862,0.492,-0.050,-0.002,-0.038,0.998,-0.246,0.354,0.229,0.317,-0.335,-1.958,8.000,21.008
11.4218,-0.113,-0.862,0.492,-0.050,-0.006,-0.042,1.005,-0.248,0.349,0.224,0.312,-0.347,-1.948,8.000,21.008
11.4418,-0.113,-0.861,0.493,-0.050,-0.011,-0.032,1.008,-0.248,0.351,0.230,0.312,-0.347,-1.948,8.000,21.008
11.4618,-0.113,-0.861,0.493,-0.050,-0.012,-0.037,1.009,-0.247,0.351,0.230,0.312,-0.347,-1.948,7.880,21.006
11.4818,-0.112,-0.859,0.497,-0.050,-0.019,-0.022,1.010,-0.245,0.351,0.536,0.312,-0.347,-1.948,7.880,21.006
11.5018,-0.112,-0.859,0.497,-0.050,-0.011,-0.040,1.006,-0.248,0.352,0.249,0.312,-0.347,-1.948,7.880,21.006
11.5218,-0.113,-0.859,0.498,-0.050,-0.012,-0.037,0.989,-0.249,0.356,0.227,0.311,-0.328,-1.950,7.880,21.006
11.5418,-0.113,-0.858,0.498,-0.050,-0.012,-0.045,1.012,-0.246,0.356,0.257,0.311,-0.328,-1.950,8.627,21.008
11.5618,-0.113,-0.858,0.498,-0.050,-0.007,-0.031,1.014,-0.248,0.357,0.236,0.311,-0.328,-1.950,8.627,21.008
11.5818,-0.113,-0.858,0.498,-0.050,-0.018,-0.027,0.999,-0.243,0.355,0.222,0.311,-0.328,-1.950,8.627,21.008
11.6019,-0.113,-0.858,0.498,-0.050,-0.009,-0.034,1.016,-0.249,0.350,0.244,0.311,-0.328,-1.950,8.627,21.008
11.6218,-0.113,-0.858,0.498,-0.050,-0.011,-0.036,1.009,-0.252,0.352,0.249,0.321,-0.330,-1.949,8.517,21.010
11.6418,-0.113,-0.858,0.498,-0.050,-0.013,-0.043,0.997,-0.249,0.354,0.249,0.321,-0.330,-1.949,8.517,21.010
11.6618,-0.113,-0.857,0.501,-0.050,-0.011,-0.034,1.013,-0.254,0.350,0.517,0.321,-0.330,-1.949,8.517,21.010
11.6818,-0.113,-0.857,0.500,-0.050,-0.009,-0.034,1.006,-0.247,0.350,0.255,0.321,-0.330,-1.949,8.517,21.010
11.7018,-0.114,-0.855,0.504,-0.051,-0.061,-0.036,0.991,-0.340,0.409,0.316,0.321,-0.330,-1.949,8.627,21.017
11.7218,-0.119,-0.852,0.507,-0.060,-0.104,-0.060,1.410,0.029,0.958,0.445,0.323,-0.320,-1.950,8.627,21.017
11.7418,-0.123,-0.849,0.510,-0.064,-0.064,0.154,0.670,-0.177,0.567,0.476,0.323,-0.320,-1.950,8.627,21.017
11.7618,-0.124,-0.846,0.514,-0.064,-0.140,0.061,0.678,-0.225,-0.034,0.437,0.323,-0.320,-1.950,8.627,21.017
11.7818,-0.128,-0.842,0.521,-0.062,-0.143,0.112,1.630,-0.440,0.010,0.825,0.323,-0.320,-1.950,8.419,21.015
11.8018,-0.137,-0.841,0.521,-0.055,0.009,-0.075,1.093,-1.403,0.381,0.241,0.323,-0.320,-1.950,8.419,21.015
11.8219,-0.143,-0.837,0.524,-0.058,0.371,0.170,0.426,-0.376,0.464,0.480,0.304,-0.333,-1.943,8.419,21.015
11.8418,-0.140,-0.848,0.508,-0.054,0.273,0.565,0.867,-0.201,0.304,-0.354,0.304,-0.333,-1.943,8.419,21.015
11.8618,-0.144,-0.850,0.504,-0.055,0.189,0.316,2.766,-0.205,0.400,-0.450,0.304,-0.333,-1.943,8.419,21.015
11.8818,-0.147,-0.851,0.500,-0.058,-0.180,0.034,0.113,-0.045,0.409,-0.367,0.304,-0.333,-1.943,7.878,21.017
11.9019,-0.154,-0.842,0.514,-0.059,-0.218,0.010,0.852,-0.611,0.464,-0.095,0.304,-0.333,-1.943,7.878,21.017
11.9218,-0.155,-0.840,0.516,-0.057,-0.187,0.223,1.298,-0.300,-0.097,0.244,0.315,-0.305,-1.941,7.878,21.017
11.9418,-0.159,-0.838,0.519,-0.060,-0.032,0.506,0.335,-0.247,0.411,0.377,0.315,-0.305,-1.941,7.878,21.017
11.9618,-0.162,-0.835,0.521,-0.062,-0.404,-0.161,0.131,-0.188,0.256,0.329,0.315,-0.305,-1.941,8.431,21.015
11.9818,-0.176,-0.831,0.526,-0.047,-0.090,0.501,0.473,-2.007,-0.544,0.291,0.315,-0.305,-1.941,8.431,21.015
12.0018,-0.173,-0.831,0.527,-0.044,-0.010,0.265,1.856,0.016,-0.433,0.067,0.315,-0.305,-1.941,8.431,21.015
12.0218,-0.176,-0.832,0.524,-0.041,-0.186,0.543,0.600,-0.416,-0.034,-0.200,0.295,-0.385,-1.957,8.431,21.015
12.0418,-0.166,-0.834,0.524,-0.042,0.125,-0.105,2.001,0.996,-0.423,-0.068,0.295,-0.385,-1.957,8.826,21.015
12.0618,-0.155,-0.837,0.522,-0.050,0.040,0.283,2.040,1.351,0.129,-0.136,0.295,-0.385,-1.957,8.826,21.015
12.0818,-0.153,-0.839,0.520,-0.051,-0.405,-0.187,0.537,0.205,-0.013,-0.213,0.295,-0.385,-1.957,8.826,21.015
12.1018,-0.150,-0.837,0.524,-0.051,-0.084,-0.194,1.189,0.240,0.241,-0.018,0.295,-0.385,-1.957,8.826,21.015
12.1218,-0.154,-0.837,0.522,-0.060,-0.009,0.143,1.533,0.128,0.925,-0.046,0.262,-0.354,-1.937,8.153,21.013
12.1418,-0.156,-0.837,0.520,-0.068,0.051,0.385,-1.738,0.320,0.859,-0.012,0.262,-0.354,-1.937,8.153,21.013
12.1619,-0.149,-0.836,0.524,-0.072,-0.122,-0.017,1.229,0.464,0.345,-0.049,0.262,-0.354,-1.937,8.153,21.013
12.1818,-0.153,-0.833,0.524,-0.088,-0.320,0.166,-0.211,0.481,1.573,0.357,0.262,-0.354,-1.937,8.153,21.013
12.2018,-0.157,-0.829,0.527,-0.098,-0.153,0.028,-0.182,0.049,1.010,0.596,0.262,-0.354,-1.937,8.482,21.017
12.2218,-0.168,-0.824,0.531,-0.104,-0.027,-0.936,2.638,-0.726,1.015,0.577,0.257,-0.388,-1.932,8.482,21.017
12.2418,-0.168,-0.821,0.535,-0.108,-0.060,-0.723,3.560,0.160,0.323,0.541,0.257,-0.388,-1.932,8.482,21.017
12.2618,-0.164,-0.815,0.546,-0.097,-0.107,-0.060,0.904,-0.511,-0.647,0.422,0.257,-0.388,-1.932,8.482,21.017
12.2818,-0.168,-0.815,0.548,-0.086,0.211,-0.540,0.880,-0.281,0.244,0.274,0.257,-0.388,-1.932,8.659,21.021
12.3019,-0.166,-0.817,0.547,-0.078,0.525,-0.431,0.981,0.131,0.433,0.473,0.267,-0.439,-1.886,8.659,21.021
12.3218,-0.167,-0.814,0.552,-0.078,0.310,-0.223,1.407,-0.080,-0.001,0.585,0.267,-0.439,-1.886,8.659,21.021
12.3418,-0.167,-0.809,0.555,-0.094,0.076,0.568,3.164,0.679,1.266,0.794,0.267,-0.439,-1.886,8.659,21.021
12.3618,-0.158,-0.807,0.564,-0.072,0.334,-0.187,1.374,-0.561,-2.405,0.505,0.267,-0.439,-1.886,8.397,21.021
12.3818,-0.172,-0.804,0.564,-0.077,0.228,-0.316,2.099,-0.882,1.175,0.229,0.267,-0.439,-1.886,8.397,21.021
12.4019,-0.169,-0.805,0.564,-0.073,-0.272,0.233,0.216,0.047,-0.400,-0.152,0.242,-0.443,-1.832,8.397,21.021
12.4218,-0.178,-0.803,0.565,-0.062,0.078,0.206,0.543,-1.438,-0.417,-0.085,0.242,-0.443,-1.832,8.397,21.021
12.4418,-0.183,-0.801,0.568,-0.050,-0.189,-0.167,2.114,-1.080,-0.701,0.122,0.242,-0.443,-1.832,9.161,21.015
12.4618,-0.174,-0.801,0.569,-0.067,0.208,-0.673,-1.106,1.720,0.808,0.416,0.242,-0.443,-1.832,9.161,21.015
12.4818,-0.185,-0.797,0.570,-0.068,0.327,-0.627,1.282,-0.919,0.685,0.322,0.242,-0.443,-1.832,9.161,21.015
12.5019,-0.200,-0.792,0.572,-0.073,0.194,-0.434,2.838,-1.081,1.264,0.353,0.227,-0.397,-1.797,9.161,21.015
12.5218,-0.208,-0.790,0.572,-0.075,0.460,0.492,2.415,-0.522,0.577,0.145,0.227,-0.397,-1.797,8.305,21.021
12.5418,-0.222,-0.784,0.577,-0.047,0.063,-1.148,0.006,-1.034,-0.709,0.322,0.227,-0.397,-1.797,8.305,21.021
12.5618,-0.220,-0.781,0.584,-0.024,0.251,-0.787,-0.508,0.429,-1.379,0.627,0.227,-0.397,-1.797,8.305,21.021
12.5818,-0.215,-0.782,0.584,-0.028,0.099,-0.034,0.962,-0.010,0.580,0.886,0.227,-0.397,-1.797,8.305,21.021
12.6018,-0.225,-0.776,0.589,-0.035,0.796,0.470,-2.214,-0.502,1.068,0.905,0.219,-0.373,-1.747,7.937,21.019
12.6218,-0.207,-0.777,0.593,-0.040,-0.030,0.479,1.317,1.747,-0.776,0.437,0.219,-0.373,-1.747,7.937,21.019
12.6418,-0.206,-0.777,0.593,-0.045,0.499,0.294,0.060,0.354,0.306,0.080,0.219,-0.373,-1.747,7.937,21.019
12.6618,-0.202,-0.779,0.593,-0.036,0.171,0.177,2.849,-0.278,-0.901,-0.261,0.219,-0.373,-1.747,7.937,21.019
12.6818,-0.210,-0.780,0.589,-0.022,0.163,-0.578,0.768,-0.741,0.240,-0.377,0.219,-0.373,-1.747,8.665,21.019
12.7018,-0.224,-0.779,0.585,-0.019,0.156,-0.023,3.778,-1.296,0.673,-0.277,0.198,-0.341,-1.778,8.665,21.019
12.7218,-0.233,-0.779,0.581,-0.025,-0.214,-0.650,2.062,-0.307,1.100,-0.185,0.198,-0.341,-1.778,8.665,21.019
12.7418,-0.247,-0.777,0.579,-0.022,0.027,0.957,1.891,-1.292,0.625,-0.139,0.198,-0.341,-1.778,8.665,21.019
12.7618,-0.246,-0.777,0.579,-0.026,0.559,0.341,3.869,0.256,0.245,0.061,0.198,-0.341,-1.778,8.244,21.017
12.7818,-0.254,-0.775,0.579,-0.024,0.009,-0.093,0.373,-0.734,0.374,0.052,0.198,-0.341,-1.778,8.244,21.017
12.8018,-0.249,-0.777,0.577,-0.034,0.169,0.097,1.720,1.007,0.482,0.031,0.210,-0.294,-1.776,8.244,21.017
12.8218,-0.255,-0.779,0.573,-0.023,0.272,0.952,0.381,-1.206,-0.037,-0.110,0.210,-0.294,-1.776,8.244,21.017
12.8418,-0.255,-0.779,0.572,-0.015,-0.240,0.268,1.463,-0.482,-0.664,-0.322,0.210,-0.294,-1.776,8.244,21.017
12.8618,-0.258,-0.781,0.567,-0.031,-0.234,-0.067,3.547,0.782,1.607,-0.074,0.210,-0.294,-1.776,9.210,21.013
12.8818,-0.240,-0.778,0.578,-0.059,-0.329,-0.064,0.616,3.239,1.143,-0.036,0.210,-0.294,-1.776,9.210,21.013
12.9018,-0.244,-0.775,0.581,-0.054,-0.321,0.601,1.199,-0.629,-0.208,0.278,0.218,-0.279,-1.808,9.210,21.013
12.9218,-0.258,-0.768,0.584,-0.047,0.116,0.479,3.527,-1.670,0.175,0.433,0.218,-0.279,-1.808,9.210,21.013
12.9418,-0.264,-0.762,0.589,-0.044,-0.011,0.080,2.364,-0.819,0.018,0.604,0.218,-0.279,-1.808,8.651,21.013
12.9618,-0.283,-0.753,0.593,-0.030,-0.479,0.436,1.904,-2.497,0.043,0.403,0.218,-0.279,-1.808,8.651,21.013
12.9818,-0.297,-0.741,0.601,-0.008,-0.077,-0.767,1.035,-2.298,-0.229,0.605,0.218,-0.279,-1.808,8.651,21.013
13.0018,-0.305,-0.734,0.606,-0.010,-0.168,-0.492,3.055,-0.684,0.427,0.833,0.197,-0.344,-1.817,8.651,21.013
13.0218,-0.309,-0.730,0.610,-0.015,0.171,-0.228,2.760,-0.116,0.487,0.695,0.197,-0.344,-1.817,8.515,21.017
13.0418,-0.309,-0.728,0.612,-0.016,0.261,0.071,0.455,0.046,0.071,0.255,0.197,-0.344,-1.817,8.515,21.017
13.0618,-0.318,-0.726,0.609,-0.026,-0.075,0.269,-0.666,0.206,0.484,-0.151,0.197,-0.344,-1.817,8.515,21.017
13.0819,-0.321,-0.728,0.605,-0.028,-0.212,-0.196,0.369,-0.071,0.387,-0.382,0.197,-0.344,-1.817,8.515,21.017
13.1018,-0.322,-0.719,0.615,-0.028,-0.294,0.228,0.719,0.001,-0.017,-0.390,0.216,-0.357,-1.800,8.700,21.017
13.1218,-0.324,-0.720,0.614,-0.021,-0.037,0.037,0.433,-0.572,-0.354,-0.371,0.216,-0.357,-1.800,8.700,21.017
13.1418,-0.325,-0.709,0.626,-0.019,-0.324,0.008,0.735,-0.502,0.024,-0.289,0.216,-0.357,-1.800,8.700,21.017
13.1618,-0.328,-0.708,0.625,-0.018,0.092,0.583,1.715,-0.267,0.141,-0.106,0.216,-0.357,-1.800,8.700,21.017
13.1818,-0.328,-0.711,0.621,-0.022,-0.038,0.419,0.799,0.249,0.492,0.097,0.216,-0.357,-1.800,8.783,21.019
13.2018,-0.340,-0.706,0.620,-0.029,-0.220,-0.809,2.271,-0.634,1.250,0.433,0.192,-0.268,-1.790,8.783,21.019
13.2218,-0.344,-0.699,0.626,-0.024,0.641,0.030,1.931,-0.799,-0.277,0.674,0.192,-0.268,-1.790,8.783,21.019
13.2418,-0.350,-0.695,0.627,-0.035,0.429,-1.370,0.998,0.071,1.127,0.725,0.192,-0.268,-1.790,8.783,21.019
13.2618,-0.351,-0.687,0.635,-0.042,-0.057,0.317,0.439,0.160,0.312,1.231,0.192,-0.268,-1.790,8.419,21.015
13.2818,-0.366,-0.673,0.641,-0.045,0.065,0.229,1.509,-1.472,1.009,1.380,0.192,-0.268,-1.790,8.419,21.015
13.3018,-0.367,-0.664,0.650,-0.046,-0.250,-0.412,1.695,-0.319,-0.134,1.192,0.202,-0.366,-1.804,8.419,21.015
13.3218,-0.390,-0.655,0.645,-0.049,0.027,0.359,0.908,-2.017,1.894,1.175,0.202,-0.366,-1.804,8.419,21.015
13.3418,-0.385,-0.648,0.656,-0.045,-0.078,-0.226,-0.520,-0.306,-0.960,1.020,0.202,-0.366,-1.804,9.139,21.017
13.3618,-0.387,-0.642,0.661,-0.043,0.243,-0.003,1.372,-0.521,-0.111,0.626,0.202,-0.366,-1.804,9.139,21.017
13.382,-0.391,-0.641,0.660,-0.045,-0.097,-0.580,-0.147,-0.124,0.400,0.072,0.196,-0.427,-1.784,9.139,21.017
13.4018,-0.395,-0.643,0.654,-0.048,0.391,0.476,-0.052,0.047,0.668,-0.427,0.196,-0.427,-1.784,9.139,21.017
13.4218,-0.399,-0.649,0.646,-0.054,-0.087,0.112,1.924,0.424,0.906,-0.730,0.196,-0.427,-1.784,7.837,21.015
13.4418,-0.406,-0.652,0.639,-0.053,-0.296,-0.270,1.262,-0.353,0.724,-0.655,0.196,-0.427,-1.784,7.837,21.015
13.4618,-0.414,-0.653,0.632,-0.055,-0.430,-0.359,1.258,-0.361,0.900,-0.505,0.196,-0.427,-1.784,7.837,21.015
13.4818,-0.414,-0.655,0.630,-0.049,0.303,-0.051,-0.608,-0.246,-0.320,-0.511,0.190,-0.372,-1.809,7.837,21.015
13.5018,-0.421,-0.643,0.638,-0.049,-0.459,0.343,0.840,-0.472,0.437,-0.593,0.190,-0.372,-1.809,9.296,21.017
13.5219,-0.408,-0.638,0.650,-0.055,-0.214,0.213,0.655,1.324,-0.455,-0.305,0.190,-0.372,-1.809,9.296,21.017
13.5418,-0.402,-0.642,0.650,-0.061,-0.373,0.205,1.277,0.954,-0.076,0.007,0.190,-0.372,-1.809,9.296,21.017
13.5618,-0.402,-0.649,0.643,-0.066,0.365,-0.585,0.978,0.474,1.687,0.546,0.190,-0.372,-1.809,9.296,21.017
13.5818,-0.411,-0.638,0.649,-0.051,0.241,0.107,-0.195,-2.039,-0.532,0.405,0.147,-0.368,-1.772,8.860,21.023
13.6019,-0.402,-0.650,0.644,-0.037,0.420,-0.241,1.030,-0.396,-0.313,-0.078,0.147,-0.368,-1.772,8.860,21.023
13.6218,-0.411,-0.650,0.637,-0.039,0.027,-0.109,0.502,-0.472,0.991,-0.442,0.147,-0.368,-1.772,8.860,21.023
13.6418,-0.413,-0.653,0.634,-0.039,0.213,0.207,2.292,-0.010,0.186,-0.406,0.147,-0.368,-1.772,8.860,21.023
13.6618,-0.404,-0.658,0.634,-0.037,-0.081,0.054,1.216,-0.384,0.326,-0.306,0.147,-0.368,-1.772,8.486,21.019
13.6818,-0.404,-0.659,0.634,-0.035,0.233,0.128,0.219,-0.115,-0.145,-0.161,0.153,-0.342,-1.755,8.486,21.019
13.7018,-0.408,-0.659,0.631,-0.037,0.264,-0.142,-0.441,-0.148,0.461,-0.088,0.153,-0.342,-1.755,8.486,21.019
13.7218,-0.407,-0.659,0.632,-0.032,0.472,-0.807,2.080,-0.169,-0.378,-0.142,0.153,-0.342,-1.755,8.486,21.019
13.7418,-0.395,-0.666,0.632,-0.028,-0.059,-0.331,1.255,0.172,-0.035,-0.380,0.153,-0.342,-1.755,8.659,21.019
13.7618,-0.404,-0.665,0.628,-0.026,-0.373,-0.349,1.325,-0.777,0.600,-0.282,0.153,-0.342,-1.755,8.659,21.019
13.7818,-0.413,-0.659,0.627,-0.029,-0.468,-0.656,3.989,-0.642,0.824,0.386,0.150,-0.320,-1.781,8.659,21.019
13.8018,-0.417,-0.650,0.634,-0.035,-0.398,-0.239,2.341,-0.287,0.366,1.284,0.150,-0.320,-1.781,8.659,21.019
13.8218,-0.416,-0.644,0.641,-0.033,0.099,-0.409,0.829,-0.692,0.597,1.466,0.150,-0.320,-1.781,8.555,21.021
13.8418,-0.409,-0.647,0.643,-0.022,0.398,-0.339,0.759,-0.566,-0.156,1.039,0.150,-0.320,-1.781,8.555,21.021
13.8619,-0.403,-0.652,0.642,-0.017,0.233,-0.217,1.119,-0.540,0.208,0.522,0.150,-0.320,-1.781,8.555,21.021
13.8818,-0.394,-0.655,0.644,-0.018,-0.033,-0.023,1.188,-0.241,0.310,0.425,0.143,-0.346,-1.752,8.555,21.021
13.9018,-0.386,-0.644,0.660,-0.022,-0.198,0.030,0.883,-0.158,0.122,0.664,0.143,-0.346,-1.752,8.555,21.021
13.9218,-0.391,-0.638,0.662,-0.025,0.036,-0.110,0.636,-0.356,0.407,0.662,0.143,-0.346,-1.752,7.726,21.017
13.9418,-0.383,-0.648,0.658,-0.019,0.329,-0.200,0.744,-0.087,0.192,0.350,0.143,-0.346,-1.752,7.726,21.017
13.9618,-0.375,-0.657,0.654,-0.019,0.049,-0.007,1.042,-0.230,0.323,0.201,0.143,-0.346,-1.752,7.726,21.017
13.9819,-0.369,-0.670,0.644,-0.017,0.210,0.151,0.971,-0.229,0.362,0.112,0.114,-0.351,-1.761,7.726,21.017
14.0018,-0.359,-0.678,0.641,-0.016,0.019,0.010,1.043,-0.142,0.151,-0.109,0.114,-0.351,-1.761,8.509,21.017
14.0218,-0.361,-0.679,0.639,-0.019,-0.215,-0.077,0.644,0.076,0.388,-0.098,0.114,-0.351,-1.761,8.509,21.017
14.0418,-0.361,-0.673,0.645,-0.020,-0.214,-0.208,0.771,-0.271,0.696,0.068,0.114,-0.351,-1.761,8.509,21.017
14.0618,-0.353,-0.675,0.647,-0.021,-0.031,-0.054,1.053,-0.290,0.367,0.225,0.114,-0.351,-1.761,8.509,21.017
14.0818,-0.346,-0.678,0.648,-0.021,-0.014,-0.043,1.008,-0.258,0.350,0.238,0.122,-0.343,-1.752,9.296,21.021
14.1018,-0.338,-0.681,0.649,-0.022,-0.010,-0.041,1.014,-0.241,0.351,0.227,0.122,-0.343,-1.752,9.296,21.021
14.1218,-0.330,-0.685,0.649,-0.022,-0.014,-0.033,0.995,-0.234,0.348,0.230,0.122,-0.343,-1.752,9.296,21.021
14.1418,-0.323,-0.688,0.650,-0.023,-0.004,-0.035,0.991,-0.241,0.350,0.241,0.122,-0.343,-1.752,9.296,21.021
14.1618,-0.317,-0.689,0.652,-0.023,-0.043,-0.053,0.981,-0.253,0.359,0.224,0.122,-0.343,-1.752,8.301,21.021
14.1818,-0.311,-0.686,0.658,-0.025,-0.112,-0.085,1.161,-0.237,0.349,0.335,0.112,-0.348,-1.767,8.301,21.021
14.2018,-0.315,-0.682,0.659,-0.026,0.053,-0.016,1.367,-0.270,0.327,0.379,0.112,-0.348,-1.767,8.301,21.021
14.2219,-0.308,-0.687,0.658,-0.026,0.028,-0.025,0.957,-0.247,0.374,0.277,0.112,-0.348,-1.767,8.301,21.021
14.2418,-0.301,-0.690,0.658,-0.027,0.011,-0.046,1.007,-0.221,0.335,0.304,0.112,-0.348,-1.767,7.929,21.019
14.2618,-0.295,-0.692,0.658,-0.027,0.001,-0.044,1.001,-0.253,0.362,0.328,0.112,-0.348,-1.767,7.929,21.019
14.2818,-0.287,-0.699,0.655,-0.026,0.044,-0.010,0.764,-0.152,0.146,0.218,0.131,-0.341,-1.754,7.929,21.019
14.3018,-0.280,-0.702,0.655,-0.026,-0.008,-0.029,0.899,-0.209,0.316,0.241,0.131,-0.341,-1.754,7.929,21.019
14.3218,-0.274,-0.704,0.654,-0.026,0.004,-0.047,0.989,-0.223,0.300,0.245,0.131,-0.341,-1.754,8.401,21.021
14.3418,-0.269,-0.707,0.654,-0.026,-0.001,-0.034,0.990,-0.234,0.354,0.288,0.131,-0.341,-1.754,8.401,21.021
14.3618,-0.263,-0.709,0.653,-0.027,-0.004,-0.035,1.011,-0.252,0.363,0.300,0.137,-0.339,-1.754,8.401,21.021
14.3818,-0.258,-0.711,0.653,-0.027,-0.011,-0.041,1.014,-0.241,0.360,0.256,0.137,-0.339,-1.754,8.401,21.021
14.4018,-0.253,-0.714,0.652,-0.027,-0.001,-0.028,1.006,-0.251,0.357,0.252,0.137,-0.339,-1.754,8.277,21.021
14.4218,-0.248,-0.716,0.652,-0.028,-0.012,-0.036,1.014,-0.252,0.356,0.256,0.137,-0.339,-1.754,8.277,21.021
14.4418,-0.244,-0.718,0.652,-0.028,-0.007,-0.039,1.004,-0.248,0.351,0.256,0.137,-0.339,-1.754,8.277,21.021
14.4618,-0.239,-0.718,0.652,-0.028,-0.021,-0.039,1.005,-0.247,0.352,0.263,0.129,-0.334,-1.760,8.277,21.021
14.4818,-0.235,-0.720,0.652,-0.028,-0.003,-0.039,1.010,-0.248,0.352,0.252,0.129,-0.334,-1.760,7.976,21.021
14.5018,-0.231,-0.722,0.652,-0.028,-0.008,-0.035,1.001,-0.240,0.352,0.250,0.129,-0.334,-1.760,7.976,21.021
14.5218,-0.227,-0.722,0.653,-0.029,-0.004,-0.039,1.002,-0.245,0.354,0.547,0.129,-0.334,-1.760,7.976,21.021
14.5418,-0.223,-0.723,0.653,-0.029,-0.005,-0.033,1.003,-0.246,0.360,0.254,0.129,-0.334,-1.760,7.976,21.021
14.5618,-0.219,-0.725,0.653,-0.029,-0.007,-0.032,1.003,-0.243,0.350,0.234,0.128,-0.353,-1.740,8.999,21.023
14.5819,-0.215,-0.724,0.655,-0.030,-0.009,-0.032,1.013,-0.243,0.348,0.549,0.128,-0.353,-1.740,8.999,21.023
14.6018,-0.211,-0.725,0.655,-0.030,-0.007,-0.040,1.009,-0.242,0.354,0.243,0.128,-0.353,-1.740,8.999,21.023
14.6218,-0.208,-0.727,0.654,-0.030,-0.001,-0.048,1.003,-0.249,0.356,0.234,0.128,-0.353,-1.740,8.999,21.023
14.6418,-0.205,-0.728,0.654,-0.030,-0.008,-0.035,1.012,-0.246,0.357,0.254,0.128,-0.353,-1.740,8.454,21.019
14.6618,-0.202,-0.728,0.654,-0.030,-0.013,-0.041,1.011,-0.246,0.356,0.249,0.124,-0.363,-1.725,8.454,21.019
14.6818,-0.199,-0.729,0.654,-0.030,-0.006,-0.038,1.006,-0.253,0.354,0.244,0.124,-0.363,-1.725,8.454,21.019
14.7018,-0.196,-0.729,0.655,-0.030,-0.019,-0.032,1.018,-0.251,0.350,0.241,0.124,-0.363,-1.725,8.454,21.019
14.7218,-0.193,-0.730,0.655,-0.030,-0.006,-0.038,1.004,-0.248,0.354,0.244,0.124,-0.363,-1.725,8.448,21.023
14.7418,-0.190,-0.731,0.654,-0.030,-0.005,-0.034,1.015,-0.249,0.356,0.250,0.124,-0.363,-1.725,8.448,21.023
14.7618,-0.188,-0.732,0.654,-0.030,-0.006,-0.042,1.003,-0.245,0.345,0.261,0.118,-0.333,-1.752,8.448,21.023
14.7818,-0.185,-0.732,0.655,-0.030,-0.014,-0.032,1.006,-0.254,0.357,0.245,0.118,-0.333,-1.752,8.448,21.023
14.8018,-0.183,-0.733,0.654,-0.030,-0.010,-0.029,1.011,-0.249,0.360,0.232,0.118,-0.333,-1.752,9.312,21.025
14.8219,-0.180,-0.734,0.655,-0.030,-0.010,-0.036,1.005,-0.248,0.350,0.249,0.118,-0.333,-1.752,9.312,21.025
14.8418,-0.178,-0.734,0.655,-0.030,-0.012,-0.041,1.007,-0.246,0.346,0.243,0.118,-0.333,-1.752,9.312,21.025
14.8619,-0.176,-0.734,0.655,-0.030,-0.015,-0.042,1.017,-0.251,0.350,0.239,0.123,-0.333,-1.742,9.312,21.025
14.8819,-0.174,-0.735,0.654,-0.030,-0.006,-0.043,0.997,-0.248,0.352,0.217,0.123,-0.333,-1.742,9.312,21.025
14.9018,-0.172,-0.736,0.654,-0.029,-0.007,-0.037,1.007,-0.249,0.349,0.236,0.123,-0.333,-1.742,9.188,21.025
14.9218,-0.170,-0.737,0.654,-0.029,-0.007,-0.042,1.010,-0.246,0.359,0.249,0.123,-0.333,-1.742,9.188,21.025
14.9418,-0.168,-0.737,0.653,-0.029,-0.003,-0.039,1.027,-0.246,0.349,0.241,0.123,-0.333,-1.742,9.188,21.025
14.9618,-0.167,-0.738,0.653,-0.029,-0.012,-0.039,0.992,-0.248,0.363,0.213,0.118,-0.341,-1.771,9.188,21.025
14.9818,-0.165,-0.738,0.654,-0.029,-0.010,-0.038,0.999,-0.251,0.357,0.221,0.118,-0.341,-1.771,8.397,21.023
15.0018,-0.163,-0.739,0.653,-0.029,-0.000,-0.036,1.005,-0.251,0.345,0.224,0.118,-0.341,-1.771,8.397,21.023
15.0219,-0.162,-0.739,0.654,-0.029,-0.015,-0.035,0.999,-0.247,0.352,0.277,0.118,-0.341,-1.771,8.397,21.023
15.0418,-0.160,-0.739,0.654,-0.029,-0.013,-0.040,1.007,-0.248,0.355,0.254,0.118,-0.341,-1.771,8.397,21.023
15.0618,-0.159,-0.739,0.654,-0.029,-0.015,-0.034,1.011,-0.252,0.355,0.221,0.126,-0.329,-1.772,8.930,21.023
15.0818,-0.157,-0.739,0.654,-0.029,-0.014,-0.034,0.998,-0.247,0.346,0.251,0.126,-0.329,-1.772,8.930,21.023
15.1019,-0.156,-0.739,0.654,-0.029,-0.020,-0.031,1.009,-0.245,0.363,0.250,0.126,-0.329,-1.772,8.930,21.023
15.1218,-0.155,-0.740,0.654,-0.029,-0.004,-0.037,1.017,-0.246,0.348,0.244,0.126,-0.329,-1.772,8.930,21.023
15.1418,-0.153,-0.740,0.654,-0.029,-0.013,-0.041,1.003,-0.249,0.338,0.252,0.126,-0.329,-1.772,8.267,21.027
15.1618,-0.152,-0.741,0.653,-0.029,-0.008,-0.033,0.998,-0.243,0.348,0.234,0.136,-0.338,-1.762,8.267,21.027
15.1818,-0.151,-0.742,0.653,-0.029,-0.009,-0.038,1.001,-0.246,0.360,0.262,0.136,-0.338,-1.762,8.267,21.027
15.2018,-0.150,-0.742,0.653,-0.029,-0.017,-0.035,1.002,-0.242,0.355,0.234,0.136,-0.338,-1.762,8.267,21.027
15.2219,-0.149,-0.743,0.652,-0.029,-0.003,-0.046,1.003,-0.246,0.362,0.245,0.136,-0.338,-1.762,8.596,21.025
15.2418,-0.148,-0.744,0.651,-0.029,-0.007,-0.038,1.004,-0.253,0.354,0.250,0.136,-0.338,-1.762,8.596,21.025
15.2618,-0.147,-0.744,0.651,-0.029,-0.019,-0.045,1.007,-0.247,0.357,0.219,0.140,-0.352,-1.748,8.596,21.025
15.2818,-0.146,-0.744,0.651,-0.029,-0.012,-0.042,0.996,-0.246,0.352,0.235,0.140,-0.352,-1.748,8.596,21.025
15.3019,-0.145,-0.745,0.651,-0.029,-0.014,-0.027,1.008,-0.248,0.357,0.238,0.140,-0.352,-1.748,7.966,21.023
15.3218,-0.144,-0.746,0.650,-0.029,-0.004,-0.038,1.013,-0.246,0.352,0.239,0.140,-0.352,-1.748,7.966,21.023
15.3418,-0.143,-0.746,0.649,-0.029,-0.009,-0.038,1.001,-0.248,0.359,0.228,0.140,-0.352,-1.748,7.966,21.023
15.3618,-0.142,-0.746,0.650,-0.029,-0.008,-0.041,1.004,-0.246,0.349,0.227,0.111,-0.340,-1.746,7.966,21.023
15.3818,-0.142,-0.745,0.651,-0.028,-0.016,-0.043,1.010,-0.249,0.346,0.245,0.111,-0.340,-1.746,8.504,21.023
15.4018,-0.141,-0.745,0.651,-0.028,-0.009,-0.030,1.008,-0.249,0.352,0.240,0.111,-0.340,-1.746,8.504,21.023
15.4218,-0.140,-0.745,0.651,-0.028,-0.005,-0.039,1.008,-0.243,0.350,0.230,0.111,-0.340,-1.746,8.504,21.023
15.4418,-0.139,-0.746,0.651,-0.028,-0.009,-0.032,1.015,-0.248,0.354,0.241,0.136,-0.336,-1.743,8.504,21.023
15.4618,-0.139,-0.747,0.650,-0.028,-0.008,-0.036,1.006,-0.242,0.351,0.222,0.136,-0.336,-1.743,7.821,21.025
15.4818,-0.138,-0.747,0.650,-0.028,-0.013,-0.039,1.001,-0.256,0.352,0.225,0.136,-0.336,-1.743,7.821,21.025
15.5018,-0.137,-0.748,0.649,-0.028,-0.007,-0.032,0.999,-0.247,0.355,0.250,0.136,-0.336,-1.743,7.821,21.025
15.5218,-0.137,-0.748,0.649,-0.028,-0.010,-0.030,1.028,-0.253,0.355,0.254,0.136,-0.336,-1.743,7.821,21.025
15.5418,-0.136,-0.748,0.649,-0.028,-0.004,-0.034,0.995,-0.251,0.351,0.255,0.127,-0.364,-1.749,8.100,21.027
15.5618,-0.135,-0.748,0.649,-0.028,-0.008,-0.045,1.014,-0.243,0.351,0.250,0.127,-0.364,-1.749,8.100,21.027
15.5818,-0.135,-0.748,0.649,-0.028,-0.013,-0.040,1.017,-0.257,0.356,0.247,0.127,-0.364,-1.749,8.100,21.027
15.6018,-0.134,-0.748,0.650,-0.028,-0.012,-0.037,0.991,-0.243,0.354,0.244,0.127,-0.364,-1.749,8.100,21.027
15.6219,-0.134,-0.748,0.650,-0.028,-0.001,-0.045,1.005,-0.254,0.352,0.262,0.127,-0.364,-1.749,8.521,21.029
15.6418,-0.134,-0.748,0.650,-0.028,-0.014,-0.042,1.012,-0.247,0.354,0.254,0.134,-0.356,-1.738,8.521,21.029
15.662,-0.133,-0.747,0.650,-0.028,-0.019,-0.041,0.996,-0.251,0.349,0.266,0.134,-0.356,-1.738,8.521,21.029
15.6819,-0.133,-0.748,0.650,-0.028,-0.010,-0.033,1.004,-0.249,0.354,0.244,0.134,-0.356,-1.738,8.521,21.029
15.7018,-0.132,-0.748,0.650,-0.028,-0.009,-0.034,1.003,-0.236,0.354,0.268,0.134,-0.356,-1.738,8.675,21.025
15.7218,-0.132,-0.748,0.650,-0.028,-0.002,-0.048,1.008,-0.242,0.354,0.247,0.134,-0.356,-1.738,8.675,21.025
15.7419,-0.131,-0.748,0.650,-0.028,-0.014,-0.034,1.005,-0.249,0.351,0.214,0.127,-0.343,-1.741,8.675,21.025
15.7618,-0.131,-0.748,0.650,-0.028,-0.010,-0.038,1.006,-0.246,0.352,0.212,0.127,-0.343,-1.741,8.675,21.025
15.7819,-0.131,-0.748,0.650,-0.028,-0.013,-0.041,0.997,-0.246,0.351,0.225,0.127,-0.343,-1.741,8.450,21.023
15.8018,-0.131,-0.748,0.650,-0.027,-0.015,-0.046,1.002,-0.249,0.350,0.212,0.127,-0.343,-1.741,8.450,21.023
15.8218,-0.130,-0.749,0.650,-0.027,-0.008,-0.034,1.004,-0.249,0.357,0.224,0.127,-0.343,-1.741,8.450,21.023
15.8419,-0.130,-0.749,0.649,-0.027,-0.007,-0.040,0.999,-0.249,0.355,0.217,0.125,-0.326,-1.732,8.450,21.023
15.8618,-0.129,-0.747,0.651,-0.028,-0.008,-0.035,1.010,-0.247,0.349,0.544,0.125,-0.326,-1.732,8.787,21.027
15.8818,-0.129,-0.748,0.651,-0.028,-0.007,-0.041,1.007,-0.251,0.360,0.238,0.125,-0.326,-1.732,8.787,21.027
15.9018,-0.129,-0.748,0.650,-0.027,-0.000,-0.039,1.008,-0.247,0.354,0.244,0.125,-0.326,-1.732,8.787,21.027
15.9218,-0.129,-0.748,0.650,-0.027,-0.011,-0.048,0.998,-0.251,0.349,0.235,0.125,-0.326,-1.732,8.787,21.027
15.9419,-0.129,-0.748,0.651,-0.027,-0.011,-0.040,1.005,-0.249,0.355,0.245,0.124,-0.360,-1.760,8.787,21.027
15.9618,-0.129,-0.748,0.651,-0.027,-0.011,-0.046,1.005,-0.251,0.355,0.244,0.124,-0.360,-1.760,8.633,21.029
15.9818,-0.128,-0.750,0.649,-0.026,-0.007,-0.038,0.990,-0.253,0.357,-0.073,0.124,-0.360,-1.760,8.633,21.029
16.0019,-0.128,-0.750,0.649,-0.026,-0.009,-0.037,1.009,-0.240,0.346,0.219,0.124,-0.360,-1.760,8.633,21.029
16.0218,-0.128,-0.749,0.649,-0.026,-0.013,-0.040,1.009,-0.248,0.345,0.250,0.124,-0.360,-1.760,8.633,21.029
16.0418,-0.128,-0.749,0.650,-0.027,-0.018,-0.037,1.012,-0.253,0.352,0.261,0.129,-0.354,-1.749,8.568,21.025
16.0618,-0.127,-0.749,0.650,-0.027,-0.009,-0.035,0.995,-0.251,0.351,0.234,0.129,-0.354,-1.749,8.568,21.025
16.0819,-0.127,-0.749,0.650,-0.027,-0.004,-0.034,1.004,-0.252,0.359,0.244,0.129,-0.354,-1.749,8.568,21.025
16.1018,-0.127,-0.749,0.650,-0.026,-0.012,-0.043,0.989,-0.252,0.354,0.252,0.129,-0.354,-1.749,8.568,21.025
16.1219,-0.127,-0.749,0.650,-0.026,-0.009,-0.037,1.006,-0.245,0.351,0.223,0.129,-0.354,-1.749,9.239,21.023
16.1418,-0.127,-0.750,0.649,-0.026,-0.002,-0.043,1.008,-0.246,0.349,0.216,0.139,-0.331,-1.772,9.239,21.023
16.1618,-0.126,-0.750,0.648,-0.026,-0.014,-0.033,0.991,-0.248,0.357,0.233,0.139,-0.331,-1.772,9.239,21.023
16.1819,-0.126,-0.751,0.648,-0.027,-0.015,-0.036,1.003,-0.248,0.355,0.229,0.139,-0.331,-1.772,9.239,21.023
16.2018,-0.126,-0.751,0.647,-0.027,-0.009,-0.030,0.998,-0.248,0.352,0.224,0.139,-0.331,-1.772,8.572,21.021
16.2218,-0.126,-0.752,0.647,-0.027,-0.011,-0.041,1.004,-0.251,0.360,0.227,0.139,-0.331,-1.772,8.572,21.021
16.2418,-0.126,-0.752,0.646,-0.026,-0.005,-0.040,1.019,-0.254,0.348,0.216,0.139,-0.337,-1.741,8.572,21.021
16.2618,-0.126,-0.753,0.645,-0.026,-0.008,-0.038,1.008,-0.257,0.344,0.208,0.139,-0.337,-1.741,8.572,21.021
16.2818,-0.125,-0.754,0.644,-0.026,-0.005,-0.034,1.008,-0.242,0.356,0.224,0.139,-0.337,-1.741,7.709,21.031
16.3018,-0.125,-0.754,0.644,-0.026,-0.006,-0.040,1.000,-0.238,0.351,0.229,0.139,-0.337,-1.741,7.709,21.031
16.3218,-0.125,-0.755,0.643,-0.026,-0.005,-0.039,1.000,-0.247,0.363,0.214,0.139,-0.337,-1.741,7.709,21.031
16.3418,-0.125,-0.755,0.643,-0.026,-0.005,-0.034,1.017,-0.248,0.354,0.207,0.122,-0.324,-1.744,7.709,21.031
16.3618,-0.125,-0.755,0.643,-0.026,-0.012,-0.039,1.008,-0.248,0.357,0.256,0.122,-0.324,-1.744,8.000,21.027
16.3818,-0.125,-0.754,0.644,-0.027,-0.014,-0.038,1.005,-0.246,0.354,0.267,0.122,-0.324,-1.744,8.000,21.027
16.4018,-0.125,-0.754,0.645,-0.026,-0.013,-0.049,1.005,-0.254,0.352,0.256,0.122,-0.324,-1.744,8.000,21.027
16.4218,-0.125,-0.753,0.645,-0.026,-0.011,-0.040,1.004,-0.248,0.359,0.246,0.119,-0.351,-1.741,8.000,21.027
16.4419,-0.125,-0.753,0.646,-0.026,-0.010,-0.038,1.007,-0.247,0.352,0.244,0.119,-0.351,-1.741,8.698,21.021
16.4618,-0.125,-0.752,0.646,-0.027,-0.011,-0.036,1.008,-0.252,0.356,0.256,0.119,-0.351,-1.741,8.698,21.021
16.4818,-0.125,-0.752,0.647,-0.026,-0.010,-0.045,1.010,-0.252,0.344,0.206,0.119,-0.351,-1.741,8.698,21.021
16.5018,-0.124,-0.752,0.647,-0.026,-0.006,-0.029,1.011,-0.245,0.349,0.224,0.119,-0.351,-1.741,8.698,21.021
16.5218,-0.124,-0.753,0.646,-0.026,0.004,-0.034,0.998,-0.247,0.350,0.250,0.126,-0.351,-1.730,8.090,21.029
16.5418,-0.124,-0.752,0.647,-0.026,-0.012,-0.044,0.992,-0.247,0.360,0.261,0.126,-0.351,-1.730,8.090,21.029
16.5618,-0.124,-0.752,0.647,-0.026,-0.011,-0.036,1.000,-0.248,0.354,0.246,0.126,-0.351,-1.730,8.090,21.029
16.5818,-0.124,-0.752,0.647,-0.026,-0.007,-0.035,1.009,-0.251,0.356,0.249,0.126,-0.351,-1.730,8.090,21.029
16.6018,-0.124,-0.752,0.647,-0.026,-0.010,-0.044,1.007,-0.245,0.349,0.235,0.126,-0.351,-1.730,8.728,21.027
16.6218,-0.124,-0.751,0.648,-0.026,-0.009,-0.035,1.002,-0.256,0.349,0.227,0.116,-0.350,-1.732,8.728,21.027
16.6419,-0.124,-0.751,0.648,-0.026,-0.007,-0.042,1.005,-0.251,0.360,0.268,0.116,-0.350,-1.732,8.728,21.027
16.6618,-0.123,-0.751,0.649,-0.026,-0.007,-0.041,1.013,-0.246,0.344,0.247,0.116,-0.350,-1.732,8.728,21.027
16.6818,-0.123,-0.750,0.649,-0.026,-0.011,-0.038,1.003,-0.249,0.349,0.262,0.116,-0.350,-1.732,8.934,21.027
16.7018,-0.123,-0.750,0.650,-0.026,-0.006,-0.038,1.008,-0.245,0.354,0.243,0.116,-0.350,-1.732,8.934,21.027
16.7218,-0.123,-0.750,0.650,-0.026,-0.014,-0.042,0.998,-0.247,0.354,0.238,0.127,-0.344,-1.720,8.934,21.027
16.7418,-0.123,-0.749,0.650,-0.026,-0.011,-0.034,1.015,-0.249,0.352,0.257,0.127,-0.344,-1.720,8.934,21.027
16.7618,-0.123,-0.749,0.650,-0.026,-0.013,-0.038,1.004,-0.247,0.361,0.268,0.127,-0.344,-1.720,8.480,21.031
16.7818,-0.123,-0.749,0.650,-0.026,-0.009,-0.040,1.001,-0.245,0.362,0.241,0.127,-0.344,-1.720,8.480,21.031
16.8018,-0.123,-0.749,0.650,-0.026,-0.005,-0.044,0.989,-0.251,0.352,0.243,0.127,-0.344,-1.720,8.480,21.031
16.8218,-0.123,-0.749,0.651,-0.026,-0.012,-0.034,1.006,-0.252,0.349,0.230,0.110,-0.345,-1.743,8.480,21.031
16.8419,-0.123,-0.748,0.651,-0.026,-0.008,-0.040,1.020,-0.245,0.352,0.258,0.110,-0.345,-1.743,8.061,21.029
16.8618,-0.123,-0.748,0.652,-0.026,-0.011,-0.038,0.995,-0.248,0.350,0.236,0.110,-0.345,-1.743,8.061,21.029
16.8818,-0.123,-0.748,0.652,-0.026,-0.005,-0.045,1.004,-0.251,0.354,0.229,0.110,-0.345,-1.743,8.061,21.029
16.9018,-0.123,-0.747,0.653,-0.026,-0.012,-0.044,1.004,-0.247,0.346,0.265,0.110,-0.345,-1.743,8.061,21.029
16.9218,-0.123,-0.747,0.653,-0.026,-0.010,-0.035,1.017,-0.248,0.346,0.266,0.131,-0.340,-1.722,8.061,21.029
16.9418,-0.123,-0.747,0.653,-0.026,-0.011,-0.033,0.999,-0.243,0.357,0.244,0.131,-0.340,-1.722,7.927,21.029
16.9618,-0.123,-0.748,0.652,-0.026,-0.008,-0.026,1.007,-0.245,0.356,0.262,0.131,-0.340,-1.722,7.927,21.029
16.9819,-0.123,-0.748,0.652,-0.026,-0.011,-0.038,1.015,-0.249,0.346,0.246,0.131,-0.340,-1.722,7.927,21.029
17.0018,-0.123,-0.748,0.652,-0.026,-0.014,-0.038,1.001,-0.256,0.354,0.251,0.131,-0.340,-1.722,7.927,21.029
17.0218,-0.123,-0.748,0.652,-0.026,-0.009,-0.038,1.018,-0.251,0.349,0.260,0.143,-0.360,-1.725,8.102,21.029
17.0418,-0.122,-0.748,0.651,-0.026,-0.009,-0.033,1.017,-0.251,0.350,0.283,0.143,-0.360,-1.725,8.102,21.029
17.0618,-0.122,-0.749,0.651,-0.026,-0.006,-0.034,1.003,-0.246,0.344,0.274,0.143,-0.360,-1.725,8.102,21.029
17.0818,-0.122,-0.749,0.650,-0.026,-0.007,-0.044,1.016,-0.249,0.350,0.243,0.143,-0.360,-1.725,8.102,21.029
17.1018,-0.122,-0.750,0.650,-0.026,-0.012,-0.030,0.939,-0.247,0.346,0.243,0.143,-0.360,-1.725,8.222,21.029
17.1219,-0.122,-0.750,0.650,-0.026,-0.011,-0.041,0.997,-0.245,0.357,0.256,0.135,-0.338,-1.715,8.222,21.029
17.1418,-0.122,-0.752,0.647,-0.026,-0.012,-0.034,1.009,-0.251,0.359,-0.065,0.135,-0.338,-1.715,8.222,21.029
17.1618,-0.122,-0.752,0.647,-0.026,-0.006,-0.036,1.015,-0.238,0.355,0.221,0.135,-0.338,-1.715,8.222,21.029
17.1818,-0.122,-0.753,0.646,-0.026,-0.003,-0.041,1.008,-0.248,0.352,0.230,0.135,-0.338,-1.715,8.590,21.031
17.2018,-0.122,-0.755,0.643,-0.025,-0.008,-0.037,1.007,-0.248,0.352,-0.075,0.135,-0.338,-1.715,8.590,21.031
17.2218,-0.122,-0.755,0.644,-0.026,-0.015,-0.034,0.937,-0.246,0.350,0.221,0.119,-0.348,-1.722,8.590,21.031
17.2418,-0.122,-0.755,0.644,-0.026,-0.006,-0.033,1.008,-0.246,0.352,0.205,0.119,-0.348,-1.722,8.590,21.031
17.2618,-0.122,-0.752,0.647,-0.026,-0.009,-0.042,0.993,-0.253,0.354,0.539,0.119,-0.348,-1.722,8.159,21.029
17.2818,-0.122,-0.752,0.647,-0.026,-0.004,-0.041,1.007,-0.248,0.359,0.240,0.119,-0.348,-1.722,8.159,21.029
17.3018,-0.122,-0.752,0.647,-0.026,0.000,-0.043,1.008,-0.246,0.346,0.258,0.119,-0.348,-1.722,8.159,21.029
17.3219,-0.122,-0.752,0.647,-0.026,-0.016,-0.041,1.002,-0.248,0.346,0.243,0.147,-0.360,-1.721,8.159,21.029
17.3419,-0.122,-0.753,0.646,-0.026,-0.007,-0.036,1.008,-0.246,0.351,0.238,0.147,-0.360,-1.721,8.138,21.029
17.3618,-0.122,-0.753,0.646,-0.026,-0.017,-0.039,1.030,-0.248,0.352,0.239,0.147,-0.360,-1.721,8.138,21.029
17.3818,-0.122,-0.753,0.646,-0.026,-0.008,-0.032,1.012,-0.256,0.351,0.239,0.147,-0.360,-1.721,8.138,21.029
17.4018,-0.122,-0.753,0.646,-0.026,-0.013,-0.045,1.013,-0.247,0.360,0.256,0.147,-0.360,-1.721,8.138,21.029
17.4219,-0.122,-0.753,0.646,-0.026,-0.012,-0.038,1.017,-0.243,0.352,0.268,0.135,-0.350,-1.740,8.136,21.031
17.4418,-0.122,-0.753,0.646,-0.026,-0.010,-0.031,1.000,-0.248,0.357,0.288,0.135,-0.350,-1.740,8.136,21.031
17.4618,-0.122,-0.753,0.646,-0.026,-0.003,-0.036,1.005,-0.256,0.352,0.244,0.135,-0.350,-1.740,8.136,21.031
17.4818,-0.122,-0.753,0.646,-0.026,-0.009,-0.039,1.013,-0.247,0.354,0.234,0.135,-0.350,-1.740,8.136,21.031
17.5018,-0.122,-0.753,0.646,-0.026,-0.006,-0.035,0.993,-0.240,0.363,0.241,0.122,-0.355,-1.738,8.073,21.035
17.5219,-0.122,-0.753,0.646,-0.026,-0.010,-0.038,0.996,-0.248,0.357,0.240,0.122,-0.355,-1.738,8.073,21.035
17.5418,-0.122,-0.753,0.646,-0.026,-0.007,-0.042,1.014,-0.252,0.351,0.232,0.122,-0.355,-1.738,8.073,21.035
17.5618,-0.122,-0.753,0.647,-0.026,-0.009,-0.036,1.004,-0.245,0.359,0.240,0.122,-0.355,-1.738,8.073,21.035
17.5818,-0.122,-0.753,0.647,-0.026,-0.006,-0.038,1.016,-0.247,0.354,0.227,0.122,-0.355,-1.738,7.862,21.033
17.6018,-0.122,-0.753,0.647,-0.026,-0.003,-0.034,1.008,-0.240,0.350,0.222,0.118,-0.371,-1.741,7.862,21.033
17.6219,-0.122,-0.752,0.647,-0.026,-0.008,-0.041,1.002,-0.249,0.356,0.217,0.118,-0.371,-1.741,7.862,21.033
17.6418,-0.122,-0.752,0.648,-0.026,-0.009,-0.032,0.999,-0.242,0.354,0.271,0.118,-0.371,-1.741,7.862,21.033
17.6618,-0.122,-0.751,0.649,-0.026,-0.010,-0.044,1.009,-0.251,0.350,0.250,0.118,-0.371,-1.741,7.473,21.033
17.6818,-0.122,-0.751,0.649,-0.026,-0.001,-0.039,1.020,-0.252,0.356,0.235,0.118,-0.371,-1.741,7.473,21.033
17.7018,-0.122,-0.751,0.649,-0.026,-0.013,-0.037,1.002,-0.242,0.350,0.245,0.132,-0.355,-1.729,7.473,21.033
17.7219,-0.122,-0.751,0.649,-0.026,-0.009,-0.041,1.008,-0.243,0.351,0.262,0.132,-0.355,-1.729,7.473,21.033
17.7418,-0.122,-0.750,0.649,-0.026,-0.014,-0.042,1.009,-0.247,0.357,0.239,0.132,-0.355,-1.729,8.391,21.035
17.7618,-0.122,-0.751,0.649,-0.026,-0.008,-0.035,1.002,-0.252,0.357,0.216,0.132,-0.355,-1.729,8.391,21.035
17.7818,-0.122,-0.751,0.648,-0.026,-0.003,-0.040,1.001,-0.245,0.359,0.223,0.132,-0.355,-1.729,8.391,21.035
17.8018,-0.122,-0.751,0.648,-0.026,-0.016,-0.036,1.012,-0.249,0.348,0.222,0.127,-0.354,-1.746,8.391,21.035
17.8219,-0.122,-0.751,0.649,-0.026,-0.014,-0.044,1.000,-0.246,0.354,0.227,0.127,-0.354,-1.746,8.161,21.035
17.8419,-0.122,-0.751,0.649,-0.026,-0.012,-0.035,0.998,-0.251,0.351,0.228,0.127,-0.354,-1.746,8.161,21.035
17.8618,-0.122,-0.750,0.649,-0.026,-0.011,-0.042,0.992,-0.246,0.351,0.247,0.127,-0.354,-1.746,8.161,21.035
17.8818,-0.122,-0.750,0.650,-0.026,-0.016,-0.039,0.992,-0.253,0.359,0.223,0.127,-0.354,-1.746,8.161,21.035
17.9018,-0.122,-0.750,0.650,-0.026,-0.008,-0.029,0.992,-0.257,0.346,0.230,0.123,-0.354,-1.726,8.022,21.038
17.9218,-0.122,-0.750,0.649,-0.026,-0.004,-0.045,1.012,-0.252,0.356,0.224,0.123,-0.354,-1.726,8.022,21.038
17.9418,-0.122,-0.750,0.650,-0.026,-0.012,-0.041,1.008,-0.245,0.354,0.267,0.123,-0.354,-1.726,8.022,21.038
17.9618,-0.122,-0.750,0.650,-0.026,-0.007,-0.044,1.002,-0.253,0.356,0.227,0.123,-0.354,-1.726,8.022,21.038
17.9818,-0.122,-0.749,0.650,-0.026,-0.011,-0.036,1.002,-0.248,0.355,0.233,0.123,-0.354,-1.726,8.022,21.038
18.0019,-0.122,-0.750,0.650,-0.026,-0.008,-0.036,1.003,-0.251,0.355,0.246,0.139,-0.347,-1.721,8.694,21.033
18.0218,-0.122,-0.750,0.649,-0.026,-0.009,-0.036,1.000,-0.245,0.348,0.245,0.139,-0.347,-1.721,8.694,21.033
18.0418,-0.122,-0.751,0.649,-0.026,-0.009,-0.035,1.006,-0.253,0.349,0.232,0.139,-0.347,-1.721,8.694,21.033
18.0618,-0.122,-0.751,0.648,-0.026,-0.004,-0.047,0.993,-0.247,0.350,0.257,0.139,-0.347,-1.721,8.694,21.033
18.0818,-0.122,-0.751,0.648,-0.026,-0.014,-0.028,1.000,-0.247,0.356,0.238,0.139,-0.347,-1.721,8.374,21.038
18.1018,-0.122,-0.752,0.647,-0.026,-0.002,-0.037,1.008,-0.253,0.354,0.236,0.146,-0.346,-1.730,8.374,21.038
18.1218,-0.122,-0.753,0.646,-0.026,-0.002,-0.038,1.012,-0.242,0.354,0.241,0.146,-0.346,-1.730,8.374,21.038
18.1419,-0.122,-0.753,0.646,-0.026,-0.011,-0.039,1.011,-0.254,0.360,0.247,0.146,-0.346,-1.730,8.374,21.038
18.1618,-0.122,-0.754,0.645,-0.026,-0.009,-0.036,0.999,-0.246,0.349,0.222,0.146,-0.346,-1.730,7.701,21.033
18.1818,-0.122,-0.755,0.644,-0.026,-0.003,-0.038,1.003,-0.248,0.349,0.250,0.146,-0.346,-1.730,7.701,21.033
18.2018,-0.122,-0.755,0.643,-0.026,-0.006,-0.034,1.011,-0.248,0.356,0.239,0.136,-0.324,-1.713,7.701,21.033
18.2218,-0.122,-0.756,0.643,-0.026,-0.011,-0.036,1.011,-0.243,0.349,0.221,0.136,-0.324,-1.713,7.701,21.033
18.2418,-0.122,-0.756,0.643,-0.026,-0.007,-0.033,1.002,-0.253,0.352,0.236,0.136,-0.324,-1.713,9.302,21.038
18.2618,-0.122,-0.756,0.642,-0.026,-0.007,-0.038,1.007,-0.254,0.349,0.243,0.136,-0.324,-1.713,9.302,21.038
18.2818,-0.122,-0.756,0.642,-0.026,-0.017,-0.039,0.988,-0.247,0.346,0.247,0.136,-0.324,-1.713,9.302,21.038
18.3018,-0.122,-0.757,0.642,-0.026,-0.009,-0.041,0.996,-0.249,0.360,0.239,0.156,-0.330,-1.714,9.302,21.038
18.3218,-0.122,-0.757,0.641,-0.026,-0.008,-0.038,1.009,-0.249,0.351,0.265,0.156,-0.330,-1.714,8.930,21.040
18.3418,-0.122,-0.758,0.640,-0.026,-0.009,-0.036,0.985,-0.247,0.350,0.263,0.156,-0.330,-1.714,8.930,21.040
18.3618,-0.122,-0.759,0.639,-0.026,-0.011,-0.040,1.020,-0.252,0.350,0.235,0.156,-0.330,-1.714,8.930,21.040
18.3818,-0.122,-0.759,0.639,-0.026,-0.011,-0.040,1.000,-0.248,0.354,0.234,0.156,-0.330,-1.714,8.930,21.040
18.4018,-0.122,-0.759,0.638,-0.027,-0.011,-0.032,1.012,-0.246,0.352,0.230,0.143,-0.338,-1.726,7.984,21.035
18.4218,-0.122,-0.762,0.636,-0.026,-0.007,-0.037,1.004,-0.245,0.352,-0.058,0.143,-0.338,-1.726,7.984,21.035
18.4418,-0.122,-0.762,0.636,-0.026,-0.011,-0.039,0.945,-0.243,0.357,0.234,0.143,-0.338,-1.726,7.984,21.035
18.4618,-0.122,-0.762,0.636,-0.026,-0.008,-0.033,0.998,-0.252,0.352,0.238,0.143,-0.338,-1.726,7.984,21.035
18.4818,-0.122,-0.759,0.639,-0.027,-0.022,-0.038,0.994,-0.249,0.345,0.537,0.143,-0.360,-1.725,8.572,21.035
18.5018,-0.122,-0.759,0.639,-0.027,-0.005,-0.036,1.003,-0.243,0.356,0.254,0.128,-0.360,-1.725,8.572,21.035
18.5218,-0.122,-0.759,0.639,-0.027,-0.007,-0.031,1.004,-0.247,0.352,0.236,0.128,-0.360,-1.725,8.572,21.035
18.5418,-0.121,-0.759,0.639,-0.027,-0.001,-0.039,1.009,-0.246,0.348,0.240,0.128,-0.360,-1.725,8.572,21.035
18.5618,-0.121,-0.758,0.640,-0.027,-0.006,-0.037,0.943,-0.251,0.349,0.283,0.128,-0.360,-1.725,8.267,21.038
18.5818,-0.121,-0.758,0.640,-0.027,-0.000,-0.036,0.998,-0.248,0.354,0.266,0.136,-0.364,-1.721,8.267,21.038
18.6018,-0.121,-0.759,0.639,-0.027,-0.017,-0.042,0.998,-0.243,0.355,-0.042,0.136,-0.364,-1.721,8.267,21.038
18.6218,-0.121,-0.759,0.639,-0.027,-0.009,-0.038,1.003,-0.253,0.354,0.232,0.136,-0.364,-1.721,8.267,21.038
18.6418,-0.121,-0.759,0.639,-0.027,-0.004,-0.040,1.010,-0.242,0.350,0.255,0.136,-0.364,-1.721,7.756,21.035
18.6618,-0.121,-0.762,0.636,-0.026,0.002,-0.032,0.991,-0.247,0.357,-0.064,0.136,-0.364,-1.721,7.756,21.035
18.6819,-0.121,-0.761,0.637,-0.026,-0.016,-0.037,1.009,-0.248,0.352,0.232,0.129,-0.361,-1.728,7.756,21.035
18.7018,-0.121,-0.760,0.638,-0.026,-0.013,-0.044,1.009,-0.246,0.357,0.249,0.129,-0.361,-1.728,7.756,21.035
18.7219,-0.122,-0.759,0.639,-0.026,-0.016,-0.036,1.010,-0.253,0.350,0.249,0.129,-0.361,-1.728,8.155,21.035
18.7418,-0.121,-0.759,0.639,-0.026,-0.006,-0.036,1.001,-0.247,0.350,0.218,0.129,-0.361,-1.728,8.155,21.035
18.7618,-0.121,-0.759,0.640,-0.026,-0.013,-0.042,1.005,-0.247,0.344,0.224,0.129,-0.361,-1.728,8.155,21.035
18.7819,-0.121,-0.759,0.639,-0.026,-0.009,-0.037,1.005,-0.251,0.357,0.222,0.142,-0.360,-1.737,8.155,21.035
18.8018,-0.122,-0.758,0.640,-0.027,-0.017,-0.034,1.002,-0.252,0.351,0.241,0.142,-0.360,-1.737,7.825,21.031
18.8218,-0.122,-0.758,0.640,-0.027,-0.009,-0.039,1.014,-0.252,0.348,0.241,0.142,-0.360,-1.737,7.825,21.031
18.8418,-0.122,-0.759,0.640,-0.026,-0.002,-0.052,1.005,-0.247,0.352,0.246,0.142,-0.360,-1.737,7.825,21.031
18.8618,-0.122,-0.758,0.640,-0.026,-0.010,-0.038,1.005,-0.252,0.356,0.266,0.142,-0.360,-1.737,7.825,21.031
18.8818,-0.122,-0.758,0.640,-0.026,-0.011,-0.047,1.007,-0.253,0.349,0.232,0.141,-0.368,-1.721,7.848,21.038
18.9041,-0.122,-0.758,0.640,-0.026,-0.009,-0.031,0.986,-0.246,0.352,0.243,0.141,-0.368,-1.721,7.848,21.038
18.9219,-0.122,-0.758,0.641,-0.026,-0.012,-0.041,0.997,-0.249,0.351,0.258,0.141,-0.368,-1.721,7.848,21.038
18.9418,-0.122,-0.757,0.641,-0.027,-0.020,-0.028,1.005,-0.248,0.344,0.238,0.141,-0.368,-1.721,7.848,21.038
18.9618,-0.122,-0.757,0.641,-0.027,-0.007,-0.044,1.008,-0.245,0.348,0.219,0.141,-0.368,-1.721,7.848,21.040
18.9818,-0.122,-0.757,0.642,-0.027,-0.015,-0.042,1.008,-0.248,0.351,0.246,0.125,-0.363,-1.728,8.816,21.040
19.0018,-0.122,-0.756,0.642,-0.027,-0.005,-0.039,1.009,-0.246,0.359,0.234,0.125,-0.363,-1.728,8.816,21.040
19.0218,-0.122,-0.756,0.643,-0.027,-0.015,-0.033,1.006,-0.246,0.352,0.235,0.125,-0.363,-1.728,8.816,21.040
19.0418,-0.122,-0.755,0.643,-0.027,-0.009,-0.030,1.013,-0.252,0.357,0.261,0.125,-0.363,-1.728,8.816,21.040
19.0618,-0.122,-0.755,0.644,-0.027,-0.014,-0.035,1.012,-0.247,0.357,0.250,0.125,-0.363,-1.728,8.234,21.035
19.0818,-0.122,-0.755,0.644,-0.027,-0.005,-0.044,1.008,-0.249,0.348,0.261,0.128,-0.340,-1.742,8.234,21.035
19.1018,-0.122,-0.755,0.644,-0.027,-0.007,-0.041,1.009,-0.249,0.355,0.234,0.128,-0.340,-1.742,8.234,21.035
19.1218,-0.122,-0.754,0.645,-0.027,-0.020,-0.042,1.014,-0.247,0.349,0.239,0.128,-0.340,-1.742,8.234,21.035
19.1418,-0.122,-0.754,0.645,-0.027,-0.004,-0.038,1.011,-0.247,0.360,0.229,0.128,-0.340,-1.742,7.868,21.033
19.1619,-0.122,-0.754,0.645,-0.027,-0.011,-0.035,1.007,-0.248,0.356,0.245,0.128,-0.340,-1.742,7.868,21.033
19.1819,-0.122,-0.754,0.645,-0.027,-0.008,-0.035,1.000,-0.246,0.354,0.249,0.130,-0.337,-1.745,7.868,21.033
19.2018,-0.122,-0.754,0.644,-0.027,-0.002,-0.036,0.999,-0.247,0.365,0.266,0.130,-0.337,-1.745,7.868,21.033
19.2218,-0.122,-0.754,0.645,-0.027,-0.013,-0.036,0.997,-0.252,0.349,0.227,0.130,-0.337,-1.745,7.815,21.038
19.2418,-0.122,-0.754,0.645,-0.027,-0.011,-0.038,1.001,-0.251,0.356,0.217,0.130,-0.337,-1.745,7.815,21.038
19.2618,-0.122,-0.754,0.644,-0.027,-0.005,-0.040,1.009,-0.247,0.354,0.258,0.130,-0.337,-1.745,7.815,21.038
19.2818,-0.122,-0.754,0.645,-0.027,-0.008,-0.040,1.011,-0.251,0.350,0.214,0.118,-0.343,-1.739,7.815,21.038
19.3018,-0.122,-0.754,0.645,-0.027,-0.002,-0.040,0.991,-0.245,0.360,0.225,0.118,-0.343,-1.739,8.844,21.040
19.3218,-0.122,-0.754,0.645,-0.027,-0.012,-0.029,1.016,-0.257,0.355,0.241,0.118,-0.343,-1.739,8.844,21.040
19.3418,-0.122,-0.754,0.645,-0.027,-0.005,-0.042,1.004,-0.251,0.355,0.232,0.118,-0.343,-1.739,8.844,21.040
19.3618,-0.122,-0.753,0.646,-0.027,-0.008,-0.042,1.006,-0.246,0.354,0.223,0.118,-0.343,-1.739,8.844,21.040
19.3818,-0.122,-0.754,0.645,-0.027,-0.008,-0.035,1.013,-0.249,0.350,0.232,0.142,-0.348,-1.719,7.636,21.040
19.4019,-0.122,-0.754,0.645,-0.027,-0.012,-0.041,0.997,-0.240,0.351,0.251,0.142,-0.348,-1.719,7.636,21.040
19.4219,-0.122,-0.754,0.645,-0.027,-0.011,-0.040,1.008,-0.243,0.352,0.245,0.142,-0.348,-1.719,7.636,21.040
19.4418,-0.122,-0.754,0.645,-0.027,-0.020,-0.036,1.004,-0.251,0.357,0.228,0.142,-0.348,-1.719,7.636,21.040
19.4619,-0.122,-0.754,0.645,-0.027,-0.013,-0.034,1.022,-0.251,0.356,0.214,0.142,-0.348,-1.719,8.297,21.040
19.4818,-0.122,-0.754,0.645,-0.027,-0.006,-0.035,1.003,-0.251,0.366,0.197,0.109,-0.353,-1.707,8.297,21.040
19.5018,-0.122,-0.753,0.646,-0.027,-0.013,-0.034,1.000,-0.245,0.361,0.217,0.109,-0.353,-1.707,8.297,21.040
19.5218,-0.122,-0.753,0.647,-0.027,-0.008,-0.038,0.996,-0.253,0.359,0.245,0.109,-0.353,-1.707,8.297,21.040
19.5418,-0.122,-0.752,0.647,-0.027,-0.007,-0.037,1.005,-0.248,0.357,0.224,0.109,-0.353,-1.707,7.671,21.040
19.5618,-0.122,-0.752,0.648,-0.027,-0.006,-0.037,1.000,-0.248,0.351,0.235,0.110,-0.356,-1.730,7.671,21.040
19.5818,-0.122,-0.751,0.648,-0.027,-0.004,-0.039,1.008,-0.247,0.350,0.260,0.110,-0.356,-1.730,7.671,21.040
19.6018,-0.122,-0.751,0.649,-0.026,-0.005,-0.044,1.002,-0.251,0.350,0.236,0.110,-0.356,-1.730,7.671,21.040
19.6218,-0.122,-0.750,0.649,-0.026,-0.009,-0.038,0.986,-0.249,0.357,0.239,0.110,-0.356,-1.730,8.913,21.038
19.6418,-0.122,-0.750,0.650,-0.026,-0.011,-0.035,1.020,-0.241,0.350,0.249,0.110,-0.356,-1.730,8.913,21.038
19.6618,-0.122,-0.750,0.649,-0.026,-0.009,-0.039,1.006,-0.248,0.349,0.232,0.143,-0.337,-1.725,8.913,21.038
19.6818,-0.122,-0.751,0.648,-0.026,-0.008,-0.034,1.007,-0.245,0.348,0.225,0.143,-0.337,-1.725,8.913,21.038
19.7018,-0.122,-0.749,0.650,-0.027,-0.014,-0.035,0.994,-0.249,0.356,0.536,0.143,-0.337,-1.725,8.858,21.046
19.7218,-0.121,-0.750,0.650,-0.027,-0.010,-0.035,1.024,-0.247,0.346,0.249,0.143,-0.337,-1.725,8.858,21.046
19.7418,-0.122,-0.750,0.649,-0.027,-0.011,-0.040,1.001,-0.248,0.355,0.239,0.143,-0.337,-1.725,8.858,21.046
19.7618,-0.121,-0.749,0.651,-0.027,-0.008,-0.033,1.008,-0.247,0.354,0.549,0.125,-0.327,-1.717,8.858,21.046
19.7818,-0.121,-0.749,0.651,-0.027,-0.008,-0.037,1.009,-0.246,0.350,0.232,0.125,-0.327,-1.717,7.597,21.044
19.8019,-0.121,-0.749,0.650,-0.027,-0.006,-0.046,1.005,-0.248,0.354,0.238,0.125,-0.327,-1.717,7.597,21.044
19.8218,-0.122,-0.747,0.653,-0.027,-0.015,-0.041,1.012,-0.253,0.354,0.549,0.125,-0.327,-1.717,7.597,21.044
19.8418,-0.121,-0.747,0.653,-0.027,-0.007,-0.036,1.014,-0.251,0.351,0.240,0.125,-0.327,-1.717,7.597,21.044
19.8618,-0.122,-0.748,0.652,-0.027,-0.003,-0.048,1.008,-0.248,0.357,0.239,0.133,-0.337,-1.742,8.216,21.042
19.8818,-0.122,-0.750,0.650,-0.027,-0.012,-0.042,0.997,-0.254,0.354,-0.060,0.133,-0.337,-1.742,8.216,21.042
19.9019,-0.122,-0.751,0.649,-0.026,-0.007,-0.038,1.007,-0.246,0.345,0.219,0.133,-0.337,-1.742,8.216,21.042
19.9219,-0.122,-0.751,0.649,-0.026,-0.007,-0.038,0.994,-0.247,0.356,0.236,0.133,-0.337,-1.742,8.216,21.042
19.9418,-0.122,-0.751,0.648,-0.026,-0.008,-0.038,0.995,-0.248,0.352,0.230,0.133,-0.337,-1.742,8.838,21.046
19.9618,-0.122,-0.752,0.647,-0.026,-0.004,-0.039,1.002,-0.257,0.350,0.225,0.137,-0.329,-1.696,8.838,21.046
19.9818,-0.122,-0.753,0.647,-0.026,-0.007,-0.036,1.010,-0.252,0.360,0.238,0.137,-0.329,-1.696,8.838,21.046
20.0018,-0.122,-0.753,0.646,-0.026,-0.005,-0.040,1.005,-0.256,0.352,0.240,0.137,-0.329,-1.696,8.838,21.046
20.0219,-0.122,-0.753,0.646,-0.026,-0.008,-0.041,1.011,-0.245,0.354,0.249,0.137,-0.329,-1.696,8.838,21.046
20.0418,-0.122,-0.753,0.646,-0.026,-0.023,-0.041,1.019,-0.254,0.355,0.254,0.137,-0.329,-1.696,8.808,21.048
20.0618,-0.122,-0.753,0.646,-0.026,-0.018,-0.040,1.016,-0.242,0.355,0.251,0.145,-0.357,-1.732,8.808,21.048
20.0818,-0.122,-0.753,0.646,-0.026,-0.010,-0.034,1.005,-0.254,0.354,0.256,0.145,-0.357,-1.732,8.808,21.048
20.1018,-0.122,-0.753,0.646,-0.026,-0.007,-0.036,1.015,-0.253,0.351,0.252,0.145,-0.357,-1.732,8.808,21.048
20.1218,-0.122,-0.754,0.645,-0.026,-0.009,-0.040,1.003,-0.249,0.355,0.238,0.145,-0.357,-1.732,7.955,21.052
20.1419,-0.122,-0.754,0.645,-0.026,-0.012,-0.038,1.008,-0.251,0.352,0.223,0.145,-0.357,-1.732,7.955,21.052
20.1618,-0.122,-0.754,0.645,-0.026,-0.007,-0.038,1.025,-0.242,0.345,0.245,0.133,-0.341,-1.746,7.955,21.052
20.1818,-0.122,-0.755,0.644,-0.027,-0.009,-0.023,1.003,-0.249,0.350,0.235,0.133,-0.341,-1.746,7.955,21.052
20.2018,-0.122,-0.754,0.644,-0.027,-0.008,-0.042,1.021,-0.253,0.357,0.256,0.133,-0.341,-1.746,8.435,21.048
20.2218,-0.122,-0.755,0.644,-0.027,-0.006,-0.033,1.005,-0.252,0.354,0.232,0.133,-0.341,-1.746,8.435,21.048
20.2419,-0.122,-0.755,0.644,-0.026,-0.006,-0.044,1.004,-0.248,0.351,0.252,0.133,-0.341,-1.746,8.435,21.048
20.2619,-0.122,-0.755,0.644,-0.027,-0.010,-0.029,1.017,-0.248,0.355,0.230,0.130,-0.334,-1.757,8.435,21.048
20.2818,-0.122,-0.755,0.643,-0.027,-0.007,-0.030,0.996,-0.252,0.352,0.217,0.130,-0.334,-1.757,8.368,21.052
20.3018,-0.122,-0.755,0.643,-0.026,-0.005,-0.043,1.009,-0.254,0.354,0.247,0.130,-0.334,-1.757,8.368,21.052
20.3218,-0.122,-0.755,0.644,-0.026,-0.013,-0.044,0.999,-0.243,0.352,0.227,0.130,-0.334,-1.757,8.368,21.052
20.3419,-0.122,-0.755,0.643,-0.026,-0.010,-0.033,1.019,-0.254,0.349,0.225,0.130,-0.334,-1.757,8.368,21.052
20.3619,-0.122,-0.755,0.644,-0.027,-0.013,-0.034,1.004,-0.251,0.348,0.229,0.132,-0.350,-1.748,8.905,21.052
20.3818,-0.122,-0.755,0.644,-0.027,-0.009,-0.024,1.007,-0.248,0.363,0.247,0.132,-0.350,-1.748,8.905,21.052
20.4018,-0.122,-0.755,0.643,-0.027,-0.007,-0.035,1.012,-0.253,0.352,0.225,0.132,-0.350,-1.748,8.905,21.052
20.4219,-0.122,-0.755,0.644,-0.027,-0.013,-0.038,1.030,-0.249,0.343,0.256,0.132,-0.350,-1.748,8.905,21.052
20.4419,-0.122,-0.755,0.644,-0.027,-0.009,-0.037,1.008,-0.249,0.352,0.240,0.132,-0.350,-1.748,9.198,21.054
20.4619,-0.122,-0.754,0.645,-0.027,-0.024,-0.035,1.009,-0.245,0.355,0.245,0.132,-0.334,-1.735,9.198,21.054
20.4818,-0.121,-0.755,0.644,-0.027,0.002,-0.038,1.006,-0.243,0.350,0.244,0.132,-0.334,-1.735,9.198,21.054
20.5018,-0.121,-0.755,0.644,-0.027,-0.009,-0.032,1.005,-0.246,0.356,0.243,0.132,-0.334,-1.735,9.198,21.054
20.5218,-0.121,-0.755,0.643,-0.027,-0.008,-0.036,0.986,-0.253,0.352,0.214,0.132,-0.334,-1.735,8.911,21.050
20.5418,-0.121,-0.756,0.643,-0.027,-0.008,-0.034,1.002,-0.243,0.351,0.225,0.132,-0.334,-1.735,8.911,21.050
20.5618,-0.121,-0.755,0.644,-0.027,-0.009,-0.041,0.996,-0.238,0.350,0.254,0.119,-0.328,-1.755,8.911,21.050
20.5818,-0.121,-0.755,0.644,-0.027,-0.006,-0.038,1.002,-0.254,0.356,0.222,0.119,-0.328,-1.755,8.911,21.050
20.6018,-0.121,-0.755,0.644,-0.027,-0.008,-0.031,1.013,-0.246,0.345,0.257,0.119,-0.328,-1.755,8.374,21.052
20.6218,-0.121,-0.755,0.644,-0.027,0.000,-0.042,1.014,-0.249,0.355,0.238,0.119,-0.328,-1.755,8.374,21.052
20.6418,-0.121,-0.755,0.644,-0.027,-0.009,-0.042,1.010,-0.245,0.345,0.236,0.124,-0.330,-1.718,8.374,21.052
20.6618,-0.121,-0.755,0.643,-0.026,-0.001,-0.035,0.997,-0.242,0.348,0.234,0.124,-0.330,-1.718,8.374,21.052
20.6819,-0.121,-0.755,0.643,-0.026,-0.009,-0.031,1.009,-0.254,0.354,0.229,0.124,-0.330,-1.718,8.069,21.050
20.7018,-0.121,-0.755,0.644,-0.027,-0.012,-0.037,1.002,-0.248,0.354,0.240,0.124,-0.330,-1.718,8.069,21.050
20.7218,-0.121,-0.755,0.644,-0.027,-0.006,-0.036,1.008,-0.245,0.354,0.240,0.124,-0.330,-1.718,8.069,21.050
20.7418,-0.121,-0.755,0.644,-0.027,-0.006,-0.040,1.008,-0.251,0.359,0.245,0.122,-0.324,-1.743,8.069,21.050
20.7618,-0.121,-0.755,0.644,-0.026,-0.006,-0.038,1.010,-0.251,0.350,0.238,0.122,-0.324,-1.743,8.759,21.054
20.7818,-0.121,-0.755,0.644,-0.027,-0.017,-0.040,0.999,-0.256,0.359,0.239,0.122,-0.324,-1.743,8.759,21.054
20.8019,-0.121,-0.755,0.644,-0.027,-0.008,-0.035,1.008,-0.246,0.355,0.255,0.122,-0.324,-1.743,8.759,21.054
20.8218,-0.121,-0.754,0.645,-0.026,-0.007,-0.046,0.999,-0.254,0.352,0.268,0.122,-0.324,-1.743,8.759,21.054
20.8418,-0.121,-0.754,0.645,-0.026,-0.002,-0.032,1.001,-0.248,0.350,0.247,0.132,-0.357,-1.731,8.930,21.054
20.8618,-0.121,-0.755,0.644,-0.026,-0.004,-0.042,1.018,-0.249,0.359,0.249,0.132,-0.357,-1.731,8.930,21.054
20.8818,-0.121,-0.755,0.644,-0.026,-0.005,-0.041,0.996,-0.247,0.350,0.230,0.132,-0.357,-1.731,8.930,21.054
20.9018,-0.121,-0.754,0.645,-0.026,-0.010,-0.035,0.997,-0.248,0.352,0.271,0.132,-0.357,-1.731,8.930,21.054
20.9218,-0.121,-0.754,0.645,-0.026,-0.011,-0.028,1.007,-0.246,0.351,0.257,0.132,-0.357,-1.731,8.248,21.056
20.9418,-0.121,-0.753,0.646,-0.027,-0.013,-0.040,1.006,-0.246,0.361,0.283,0.112,-0.338,-1.717,8.248,21.056
20.9618,-0.121,-0.753,0.647,-0.027,-0.009,-0.033,1.003,-0.246,0.355,0.273,0.112,-0.338,-1.717,8.248,21.056
20.9818,-0.121,-0.752,0.647,-0.027,-0.011,-0.027,1.013,-0.248,0.354,0.229,0.112,-0.338,-1.717,8.248,21.056
21.0018,-0.121,-0.752,0.648,-0.027,-0.014,-0.040,1.020,-0.246,0.350,0.224,0.112,-0.338,-1.717,8.248,21.056
21.0218,-0.121,-0.751,0.648,-0.027,-0.010,-0.033,1.009,-0.251,0.352,0.227,0.112,-0.338,-1.717,8.576,21.054
21.0418,-0.121,-0.752,0.648,-0.027,-0.007,-0.038,1.005,-0.249,0.348,0.224,0.129,-0.333,-1.722,8.576,21.054
21.0618,-0.121,-0.752,0.648,-0.027,-0.009,-0.034,1.003,-0.253,0.355,0.234,0.129,-0.333,-1.722,8.576,21.054
21.0818,-0.121,-0.752,0.648,-0.027,-0.011,-0.035,1.002,-0.249,0.356,0.230,0.129,-0.333,-1.722,8.576,21.054
21.1018,-0.121,-0.749,0.650,-0.027,-0.023,-0.044,1.004,-0.254,0.362,0.537,0.129,-0.333,-1.722,8.830,21.058
21.1218,-0.121,-0.749,0.650,-0.027,-0.009,-0.040,1.008,-0.247,0.348,0.244,0.129,-0.333,-1.722,8.830,21.058
21.1418,-0.121,-0.750,0.650,-0.027,-0.005,-0.031,0.998,-0.249,0.359,0.241,0.117,-0.333,-1.726,8.830,21.058
21.1619,-0.121,-0.751,0.648,-0.027,-0.012,-0.040,1.010,-0.253,0.357,-0.056,0.117,-0.333,-1.726,8.830,21.058
21.1818,-0.121,-0.751,0.648,-0.027,-0.007,-0.038,1.001,-0.242,0.354,0.234,0.117,-0.333,-1.726,9.225,21.060
21.2018,-0.121,-0.751,0.649,-0.027,-0.007,-0.043,1.008,-0.251,0.359,0.247,0.117,-0.333,-1.726,9.225,21.060
21.2218,-0.121,-0.749,0.651,-0.027,-0.007,-0.034,1.000,-0.241,0.351,0.544,0.117,-0.333,-1.726,9.225,21.060
21.2418,-0.121,-0.750,0.650,-0.027,-0.005,-0.033,1.001,-0.243,0.356,0.254,0.148,-0.351,-1.733,9.225,21.060
21.2618,-0.121,-0.751,0.649,-0.027,0.000,-0.035,1.025,-0.248,0.360,0.236,0.148,-0.351,-1.733,8.563,21.058
21.2818,-0.121,-0.749,0.650,-0.027,-0.011,-0.037,0.998,-0.241,0.360,0.538,0.148,-0.351,-1.733,8.563,21.058
21.3018,-0.121,-0.750,0.650,-0.027,-0.009,-0.035,1.010,-0.243,0.354,0.258,0.148,-0.351,-1.733,8.563,21.058
21.3218,-0.121,-0.750,0.650,-0.028,-0.019,-0.038,1.002,-0.249,0.354,0.271,0.148,-0.351,-1.733,8.563,21.058
21.3418,-0.121,-0.750,0.650,-0.028,-0.014,-0.031,1.015,-0.248,0.354,0.261,0.128,-0.340,-1.732,8.570,21.056
21.3618,-0.121,-0.750,0.650,-0.027,-0.004,-0.041,1.008,-0.249,0.352,0.217,0.128,-0.340,-1.732,8.570,21.056
21.3818,-0.121,-0.750,0.649,-0.027,-0.006,-0.041,1.014,-0.242,0.356,0.230,0.128,-0.340,-1.732,8.570,21.056
21.4018,-0.121,-0.750,0.650,-0.027,-0.013,-0.045,0.999,-0.243,0.357,0.257,0.128,-0.340,-1.732,8.570,21.056
21.4218,-0.121,-0.750,0.649,-0.027,-0.009,-0.034,0.998,-0.251,0.352,0.228,0.128,-0.340,-1.732,7.518,21.056
21.4418,-0.121,-0.750,0.649,-0.027,-0.008,-0.040,1.020,-0.252,0.354,0.254,0.130,-0.360,-1.728,7.518,21.056
21.4618,-0.121,-0.750,0.649,-0.027,-0.011,-0.034,1.008,-0.246,0.354,0.240,0.130,-0.360,-1.728,7.518,21.056
21.4818,-0.121,-0.750,0.649,-0.027,-0.008,-0.044,1.000,-0.247,0.354,0.216,0.130,-0.360,-1.728,7.518,21.056
21.5019,-0.121,-0.751,0.649,-0.027,-0.008,-0.036,1.012,-0.256,0.355,0.219,0.130,-0.360,-1.728,8.439,21.060
21.5218,-0.122,-0.750,0.649,-0.027,-0.013,-0.038,0.993,-0.248,0.357,0.232,0.130,-0.360,-1.728,8.439,21.060
21.5418,-0.121,-0.751,0.649,-0.027,-0.010,-0.029,1.015,-0.251,0.350,0.216,0.129,-0.348,-1.747,8.439,21.060
21.5618,-0.121,-0.751,0.648,-0.027,-0.006,-0.032,1.005,-0.246,0.354,0.212,0.129,-0.348,-1.747,8.439,21.060
21.5818,-0.121,-0.752,0.648,-0.027,-0.001,-0.035,1.003,-0.245,0.350,0.224,0.129,-0.348,-1.747,7.856,21.058
21.6018,-0.121,-0.752,0.648,-0.027,-0.010,-0.039,0.997,-0.251,0.352,0.250,0.129,-0.348,-1.747,7.856,21.058
21.6218,-0.121,-0.752,0.648,-0.027,-0.009,-0.035,1.011,-0.246,0.351,0.250,0.132,-0.358,-1.739,7.856,21.058
21.6418,-0.121,-0.751,0.648,-0.027,-0.016,-0.041,1.005,-0.246,0.355,0.274,0.132,-0.358,-1.739,7.856,21.058
21.6618,-0.121,-0.751,0.648,-0.027,-0.008,-0.032,1.013,-0.252,0.350,0.238,0.132,-0.358,-1.739,8.712,21.058
21.6818,-0.121,-0.751,0.648,-0.027,-0.012,-0.044,1.007,-0.245,0.365,0.235,0.132,-0.358,-1.739,8.712,21.058
21.7018,-0.122,-0.751,0.649,-0.027,-0.015,-0.043,1.029,-0.258,0.350,0.241,0.132,-0.358,-1.739,8.712,21.058
21.7218,-0.122,-0.751,0.649,-0.027,-0.009,-0.039,1.008,-0.247,0.349,0.234,0.132,-0.353,-1.751,8.712,21.058
21.7418,-0.122,-0.751,0.649,-0.027,-0.019,-0.035,1.002,-0.248,0.351,0.233,0.132,-0.353,-1.751,9.098,21.060
21.7618,-0.122,-0.751,0.649,-0.027,-0.007,-0.032,1.009,-0.248,0.352,0.235,0.132,-0.353,-1.751,9.098,21.060
21.7818,-0.122,-0.751,0.649,-0.027,-0.009,-0.043,0.999,-0.245,0.351,0.250,0.132,-0.353,-1.751,9.098,21.060
21.8018,-0.122,-0.751,0.649,-0.027,-0.009,-0.042,1.011,-0.252,0.357,0.254,0.132,-0.353,-1.751,9.098,21.060
21.8219,-0.122,-0.751,0.649,-0.027,-0.003,-0.044,1.001,-0.257,0.362,0.265,0.122,-0.347,-1.742,8.767,21.054
21.8419,-0.122,-0.750,0.649,-0.027,-0.014,-0.033,1.002,-0.248,0.355,0.238,0.122,-0.347,-1.742,8.767,21.054
21.8618,-0.122,-0.750,0.649,-0.027,-0.009,-0.035,0.997,-0.253,0.356,0.262,0.122,-0.347,-1.742,8.767,21.054
21.8818,-0.122,-0.750,0.649,-0.027,-0.004,-0.040,1.006,-0.246,0.356,0.246,0.122,-0.347,-1.742,8.767,21.054
21.9018,-0.122,-0.750,0.649,-0.026,0.000,-0.040,1.002,-0.249,0.351,0.247,0.122,-0.347,-1.742,8.578,21.056
21.9218,-0.122,-0.750,0.649,-0.026,-0.011,-0.044,0.997,-0.248,0.344,0.260,0.125,-0.341,-1.736,8.578,21.056
21.9419,-0.122,-0.750,0.650,-0.026,-0.011,-0.025,0.998,-0.248,0.350,0.265,0.125,-0.341,-1.736,8.578,21.056
21.9618,-0.121,-0.750,0.649,-0.026,-0.005,-0.036,1.006,-0.243,0.344,0.249,0.125,-0.341,-1.736,8.578,21.056
21.9818,-0.121,-0.750,0.649,-0.026,-0.005,-0.034,1.001,-0.246,0.350,0.263,0.125,-0.341,-1.736,8.246,21.058
22.0018,-0.121,-0.750,0.649,-0.026,-0.006,-0.035,1.003,-0.249,0.350,0.267,0.125,-0.341,-1.736,8.246,21.058
22.0218,-0.121,-0.751,0.649,-0.026,-0.007,-0.040,0.996,-0.248,0.359,0.235,0.144,-0.352,-1.730,8.246,21.058
22.0418,-0.121,-0.751,0.648,-0.026,-0.009,-0.038,0.980,-0.243,0.352,0.249,0.144,-0.352,-1.730,8.246,21.058
22.0618,-0.121,-0.751,0.648,-0.027,-0.017,-0.032,1.012,-0.249,0.352,0.254,0.144,-0.352,-1.730,8.246,21.058
22.0818,-0.121,-0.752,0.647,-0.026,-0.004,-0.034,1.009,-0.246,0.351,0.210,0.144,-0.352,-1.730,8.620,21.058
22.1018,-0.121,-0.753,0.646,-0.026,-0.009,-0.038,1.008,-0.247,0.348,0.216,0.144,-0.352,-1.730,8.620,21.058
22.1218,-0.121,-0.753,0.646,-0.026,-0.007,-0.038,1.006,-0.248,0.343,0.200,0.135,-0.348,-1.733,8.620,21.058
22.1418,-0.121,-0.753,0.646,-0.026,-0.010,-0.042,1.002,-0.253,0.356,0.256,0.135,-0.348,-1.733,8.620,21.058
22.1618,-0.121,-0.753,0.646,-0.026,-0.006,-0.039,1.008,-0.249,0.348,0.247,0.135,-0.348,-1.733,8.500,21.058
22.1818,-0.121,-0.753,0.646,-0.026,-0.013,-0.032,0.992,-0.257,0.356,0.240,0.135,-0.348,-1.733,8.500,21.058
22.2019,-0.121,-0.753,0.646,-0.026,-0.011,-0.042,1.009,-0.257,0.354,0.239,0.135,-0.348,-1.733,8.500,21.058
22.2218,-0.122,-0.754,0.645,-0.026,-0.006,-0.040,0.999,-0.249,0.356,0.233,0.138,-0.353,-1.725,8.500,21.058
22.2418,-0.122,-0.754,0.645,-0.026,-0.007,-0.040,0.995,-0.249,0.356,0.236,0.138,-0.353,-1.725,7.911,21.060
22.2618,-0.121,-0.754,0.645,-0.026,-0.010,-0.030,1.008,-0.247,0.359,0.260,0.138,-0.353,-1.725,7.911,21.060
22.2819,-0.122,-0.754,0.645,-0.026,-0.010,-0.039,1.004,-0.249,0.354,0.260,0.138,-0.353,-1.725,7.911,21.060
22.3018,-0.122,-0.754,0.645,-0.027,-0.014,-0.031,1.004,-0.247,0.362,0.257,0.138,-0.353,-1.725,7.911,21.060
22.3218,-0.122,-0.754,0.645,-0.026,-0.002,-0.044,1.020,-0.249,0.356,0.244,0.128,-0.372,-1.726,8.197,21.062
22.3418,-0.122,-0.753,0.646,-0.027,-0.015,-0.036,1.017,-0.246,0.346,0.255,0.128,-0.372,-1.726,8.197,21.062
22.3618,-0.122,-0.753,0.646,-0.027,-0.010,-0.039,1.008,-0.246,0.355,0.266,0.128,-0.372,-1.726,8.197,21.062
22.3818,-0.122,-0.755,0.644,-0.026,-0.005,-0.040,1.008,-0.247,0.349,-0.058,0.128,-0.372,-1.726,8.197,21.062
22.4018,-0.122,-0.755,0.644,-0.026,-0.007,-0.035,1.006,-0.251,0.360,0.219,0.128,-0.372,-1.726,7.309,21.062
22.4218,-0.122,-0.754,0.644,-0.026,-0.012,-0.034,1.000,-0.251,0.355,0.225,0.136,-0.366,-1.716,7.309,21.062
